{
  "resourceType": "Bundle",
  "id": "bundle-coded-race-and-ethnicity-baby-g-quinn",
  "meta": {
    "profile": [
      "http://hl7.org/fhir/us/bfdr/StructureDefinition/vr-demographic-coded-bundle"
    ]
  },
  "identifier": {
    "value": "c03eab8c-11e8-4d0c-ad2a-b385395e27de"
  },
  "entry": [
    {
      "resource": {
        "resourceType": "Composition",
        "id": "composition-coded-race-and-ethnicity-baby-g-quinn",
        "meta": {
          "profile": [
            "http://hl7.org/fhir/us/bfdr/StructureDefinition/Composition-coded-race-and-ethnicity"
          ]
        },
        "identifier": {
          "value": "c03eab8c-11e8-4d0c-ad2a-b385395e27dc"
        },
        "extension": [
          {
            "valueIdentifier": {
              "type": {
                "coding": [
                  {
                    "code": "BCT",
                    "system": "http://terminology.hl7.org/CodeSystem/v2-0203"
                  }
                ]
              },
              "value": "15075"
            },
            "url": "http://hl7.org/fhir/us/bfdr/StructureDefinition/Extension-live-birth-certificate-number"
          }
        ],
        "author": [
          {
            "reference": "Organization/organization-nchs",
            "display": "National Center for Health Statistics"
          }
        ],
        "section": [
          {
            "entry": [
              {
                "reference": "Observation/observation-input-race-and-ethnicity-mother",
                "display": "Observation - Input Race and Ethnicity"
              },
              {
                "reference": "Observation/observation-coded-race-and-ethnicity-mother",
                "display": "Observation - Coded Race and Ethnicity"
              }
            ],
            "code": {
              "coding": [
                {
                  "code": "MTH",
                  "system": "http://terminology.hl7.org/CodeSystem/v3-RoleCode"
                }
              ]
            },
            "title": "Mother's Coded Race and Ethnicity",
            "focus": {
              "reference": "Patient/patient-mother-jada-ann-quinn"
            }
          },
          {
            "entry": [
              {
                "reference": "Observation/observation-input-race-and-ethnicity-father",
                "display": "Observation - Input Race and Ethnicity"
              },
              {
                "reference": "Observation/observation-coded-race-and-ethnicity-father",
                "display": "Observation - Coded Race and Ethnicity"
              }
            ],
            "code": {
              "coding": [
                {
                  "code": "NFTH",
                  "system": "http://terminology.hl7.org/CodeSystem/v3-RoleCode"
                }
              ]
            },
            "title": "Father's Coded Race and Ethnicity",
            "focus": {
              "reference": "RelatedPerson/relatedperson-father-natural-james-brandon-quinn"
            }
          }
        ],
        "type": {
          "coding": [
            {
              "code": "86805-9",
              "system": "http://loinc.org",
              "display": "Race and ethnicity information Document"
            }
          ]
        },
        "status": "final",
        "subject": {
          "reference": "Patient/patient-child-babyg-quinn",
          "display": "Patient - Child (Baby G Quinn)"
        },
        "date": "2019-01-09",
        "title": "Coded Race and Ethnicity"
      },
      "fullUrl": "http://www.example.org/fhir/CompositionCodedRaceAndEthnicity/composition-coded-race-and-ethnicity-baby-g-quinn"
    },
    {
      "resource": {
        "resourceType": "Observation",
        "id": "observation-input-race-and-ethnicity-mother",
        "meta": {
          "profile": [
            "http://hl7.org/fhir/us/vr-common-library/StructureDefinition/input-race-and-ethnicity-vr"
          ]
        },
        "subject": {
          "display": "NCHS generated"
        },
        "component": [
          {
            "code": {
              "coding": [
                {
                  "system": "http://hl7.org/fhir/us/vr-common-library/CodeSystem/codesystem-vr-component",
                  "code": "White"
                }
              ]
            },
            "valueBoolean": true
          },
          {
            "code": {
              "coding": [
                {
                  "system": "http://hl7.org/fhir/us/vr-common-library/CodeSystem/codesystem-vr-component",
                  "code": "BlackOrAfricanAmerican"
                }
              ]
            },
            "valueBoolean": false
          },
          {
            "code": {
              "coding": [
                {
                  "system": "http://hl7.org/fhir/us/vr-common-library/CodeSystem/codesystem-vr-component",
                  "code": "AmericanIndianOrAlaskanNative"
                }
              ]
            },
            "valueBoolean": true
          },
          {
            "code": {
              "coding": [
                {
                  "system": "http://hl7.org/fhir/us/vr-common-library/CodeSystem/codesystem-vr-component",
                  "code": "AsianIndian"
                }
              ]
            },
            "valueBoolean": false
          },
          {
            "code": {
              "coding": [
                {
                  "system": "http://hl7.org/fhir/us/vr-common-library/CodeSystem/codesystem-vr-component",
                  "code": "Chinese"
                }
              ]
            },
            "valueBoolean": false
          },
          {
            "code": {
              "coding": [
                {
                  "system": "http://hl7.org/fhir/us/vr-common-library/CodeSystem/codesystem-vr-component",
                  "code": "Filipino"
                }
              ]
            },
            "valueBoolean": false
          },
          {
            "code": {
              "coding": [
                {
                  "system": "http://hl7.org/fhir/us/vr-common-library/CodeSystem/codesystem-vr-component",
                  "code": "Japanese"
                }
              ]
            },
            "valueBoolean": false
          },
          {
            "code": {
              "coding": [
                {
                  "system": "http://hl7.org/fhir/us/vr-common-library/CodeSystem/codesystem-vr-component",
                  "code": "Korean"
                }
              ]
            },
            "valueBoolean": false
          },
          {
            "code": {
              "coding": [
                {
                  "system": "http://hl7.org/fhir/us/vr-common-library/CodeSystem/codesystem-vr-component",
                  "code": "Vietnamese"
                }
              ]
            },
            "valueBoolean": false
          },
          {
            "code": {
              "coding": [
                {
                  "system": "http://hl7.org/fhir/us/vr-common-library/CodeSystem/codesystem-vr-component",
                  "code": "OtherAsian"
                }
              ]
            },
            "valueBoolean": true
          },
          {
            "code": {
              "coding": [
                {
                  "system": "http://hl7.org/fhir/us/vr-common-library/CodeSystem/codesystem-vr-component",
                  "code": "NativeHawaiian"
                }
              ]
            },
            "valueBoolean": false
          },
          {
            "code": {
              "coding": [
                {
                  "system": "http://hl7.org/fhir/us/vr-common-library/CodeSystem/codesystem-vr-component",
                  "code": "GuamanianOrChamorro"
                }
              ]
            },
            "valueBoolean": false
          },
          {
            "code": {
              "coding": [
                {
                  "system": "http://hl7.org/fhir/us/vr-common-library/CodeSystem/codesystem-vr-component",
                  "code": "Samoan"
                }
              ]
            },
            "valueBoolean": false
          },
          {
            "code": {
              "coding": [
                {
                  "system": "http://hl7.org/fhir/us/vr-common-library/CodeSystem/codesystem-vr-component",
                  "code": "OtherPacificIslander"
                }
              ]
            },
            "valueBoolean": false
          },
          {
            "code": {
              "coding": [
                {
                  "system": "http://hl7.org/fhir/us/vr-common-library/CodeSystem/codesystem-vr-component",
                  "code": "OtherRace"
                }
              ]
            },
            "valueBoolean": false
          },
          {
            "code": {
              "coding": [
                {
                  "system": "http://hl7.org/fhir/us/vr-common-library/CodeSystem/codesystem-vr-component",
                  "code": "FirstOtherAsianLiteral"
                }
              ]
            },
            "valueString": "Malaysian"
          },
          {
            "code": {
              "coding": [
                {
                  "system": "http://hl7.org/fhir/us/vr-common-library/CodeSystem/codesystem-vr-component",
                  "code": "FirstAmericanIndianOrAlaskanNativeLiteral"
                }
              ]
            },
            "valueString": "Arikara"
          },
          {
            "code": {
              "coding": [
                {
                  "system": "http://hl7.org/fhir/us/vr-common-library/CodeSystem/codesystem-vr-component",
                  "code": "HispanicMexican"
                }
              ]
            },
            "valueCodeableConcept": {
              "coding": [
                {
                  "code": "Y",
                  "system": "http://terminology.hl7.org/CodeSystem/v2-0136",
                  "display": "Yes"
                }
              ]
            }
          },
          {
            "code": {
              "coding": [
                {
                  "system": "http://hl7.org/fhir/us/vr-common-library/CodeSystem/codesystem-vr-component",
                  "code": "HispanicCuban"
                }
              ]
            },
            "valueCodeableConcept": {
              "coding": [
                {
                  "code": "Y",
                  "system": "http://terminology.hl7.org/CodeSystem/v2-0136",
                  "display": "Yes"
                }
              ]
            }
          },
          {
            "code": {
              "coding": [
                {
                  "system": "http://hl7.org/fhir/us/vr-common-library/CodeSystem/codesystem-vr-component",
                  "code": "HispanicPuertoRican"
                }
              ]
            },
            "valueCodeableConcept": {
              "coding": [
                {
                  "code": "Y",
                  "system": "http://terminology.hl7.org/CodeSystem/v2-0136",
                  "display": "Yes"
                }
              ]
            }
          },
          {
            "code": {
              "coding": [
                {
                  "system": "http://hl7.org/fhir/us/vr-common-library/CodeSystem/codesystem-vr-component",
                  "code": "HispanicOther"
                }
              ]
            },
            "valueCodeableConcept": {
              "coding": [
                {
                  "code": "N",
                  "system": "http://terminology.hl7.org/CodeSystem/v2-0136",
                  "display": "No"
                }
              ]
            }
          }
        ],
        "status": "final",
        "code": {
          "coding": [
            {
              "code": "inputraceandethnicityMother",
              "system": "http://hl7.org/fhir/us/vr-common-library/CodeSystem/CodeSystem-local-observation-codes-vr"
            }
          ]
        }
      },
      "fullUrl": "http://www.example.org/fhir/InputRaceAndEthnicity/observation-input-race-and-ethnicity-mother"
    },
    {
      "resource": {
        "resourceType": "Observation",
        "id": "observation-input-race-and-ethnicity-father",
        "meta": {
          "profile": [
            "http://hl7.org/fhir/us/vr-common-library/StructureDefinition/input-race-and-ethnicity-vr"
          ]
        },
        "subject": {
          "display": "NCHS generated"
        },
        "component": [
          {
            "code": {
              "coding": [
                {
                  "system": "http://hl7.org/fhir/us/vr-common-library/CodeSystem/codesystem-vr-component",
                  "code": "White"
                }
              ]
            },
            "valueBoolean": true
          },
          {
            "code": {
              "coding": [
                {
                  "system": "http://hl7.org/fhir/us/vr-common-library/CodeSystem/codesystem-vr-component",
                  "code": "BlackOrAfricanAmerican"
                }
              ]
            },
            "valueBoolean": false
          },
          {
            "code": {
              "coding": [
                {
                  "system": "http://hl7.org/fhir/us/vr-common-library/CodeSystem/codesystem-vr-component",
                  "code": "AmericanIndianOrAlaskanNative"
                }
              ]
            },
            "valueBoolean": true
          },
          {
            "code": {
              "coding": [
                {
                  "system": "http://hl7.org/fhir/us/vr-common-library/CodeSystem/codesystem-vr-component",
                  "code": "AsianIndian"
                }
              ]
            },
            "valueBoolean": false
          },
          {
            "code": {
              "coding": [
                {
                  "system": "http://hl7.org/fhir/us/vr-common-library/CodeSystem/codesystem-vr-component",
                  "code": "Chinese"
                }
              ]
            },
            "valueBoolean": false
          },
          {
            "code": {
              "coding": [
                {
                  "system": "http://hl7.org/fhir/us/vr-common-library/CodeSystem/codesystem-vr-component",
                  "code": "Filipino"
                }
              ]
            },
            "valueBoolean": false
          },
          {
            "code": {
              "coding": [
                {
                  "system": "http://hl7.org/fhir/us/vr-common-library/CodeSystem/codesystem-vr-component",
                  "code": "Japanese"
                }
              ]
            },
            "valueBoolean": false
          },
          {
            "code": {
              "coding": [
                {
                  "system": "http://hl7.org/fhir/us/vr-common-library/CodeSystem/codesystem-vr-component",
                  "code": "Korean"
                }
              ]
            },
            "valueBoolean": false
          },
          {
            "code": {
              "coding": [
                {
                  "system": "http://hl7.org/fhir/us/vr-common-library/CodeSystem/codesystem-vr-component",
                  "code": "Vietnamese"
                }
              ]
            },
            "valueBoolean": false
          },
          {
            "code": {
              "coding": [
                {
                  "system": "http://hl7.org/fhir/us/vr-common-library/CodeSystem/codesystem-vr-component",
                  "code": "OtherAsian"
                }
              ]
            },
            "valueBoolean": true
          },
          {
            "code": {
              "coding": [
                {
                  "system": "http://hl7.org/fhir/us/vr-common-library/CodeSystem/codesystem-vr-component",
                  "code": "NativeHawaiian"
                }
              ]
            },
            "valueBoolean": false
          },
          {
            "code": {
              "coding": [
                {
                  "system": "http://hl7.org/fhir/us/vr-common-library/CodeSystem/codesystem-vr-component",
                  "code": "GuamanianOrChamorro"
                }
              ]
            },
            "valueBoolean": false
          },
          {
            "code": {
              "coding": [
                {
                  "system": "http://hl7.org/fhir/us/vr-common-library/CodeSystem/codesystem-vr-component",
                  "code": "Samoan"
                }
              ]
            },
            "valueBoolean": false
          },
          {
            "code": {
              "coding": [
                {
                  "system": "http://hl7.org/fhir/us/vr-common-library/CodeSystem/codesystem-vr-component",
                  "code": "OtherPacificIslander"
                }
              ]
            },
            "valueBoolean": false
          },
          {
            "code": {
              "coding": [
                {
                  "system": "http://hl7.org/fhir/us/vr-common-library/CodeSystem/codesystem-vr-component",
                  "code": "OtherRace"
                }
              ]
            },
            "valueBoolean": false
          },
          {
            "code": {
              "coding": [
                {
                  "system": "http://hl7.org/fhir/us/vr-common-library/CodeSystem/codesystem-vr-component",
                  "code": "FirstOtherAsianLiteral"
                }
              ]
            },
            "valueString": "Malaysian"
          },
          {
            "code": {
              "coding": [
                {
                  "system": "http://hl7.org/fhir/us/vr-common-library/CodeSystem/codesystem-vr-component",
                  "code": "FirstAmericanIndianOrAlaskanNativeLiteral"
                }
              ]
            },
            "valueString": "Arikara"
          },
          {
            "code": {
              "coding": [
                {
                  "system": "http://hl7.org/fhir/us/vr-common-library/CodeSystem/codesystem-vr-component",
                  "code": "HispanicMexican"
                }
              ]
            },
            "valueCodeableConcept": {
              "coding": [
                {
                  "code": "Y",
                  "system": "http://terminology.hl7.org/CodeSystem/v2-0136",
                  "display": "Yes"
                }
              ]
            }
          },
          {
            "code": {
              "coding": [
                {
                  "system": "http://hl7.org/fhir/us/vr-common-library/CodeSystem/codesystem-vr-component",
                  "code": "HispanicCuban"
                }
              ]
            },
            "valueCodeableConcept": {
              "coding": [
                {
                  "code": "Y",
                  "system": "http://terminology.hl7.org/CodeSystem/v2-0136",
                  "display": "Yes"
                }
              ]
            }
          },
          {
            "code": {
              "coding": [
                {
                  "system": "http://hl7.org/fhir/us/vr-common-library/CodeSystem/codesystem-vr-component",
                  "code": "HispanicPuertoRican"
                }
              ]
            },
            "valueCodeableConcept": {
              "coding": [
                {
                  "code": "Y",
                  "system": "http://terminology.hl7.org/CodeSystem/v2-0136",
                  "display": "Yes"
                }
              ]
            }
          },
          {
            "code": {
              "coding": [
                {
                  "system": "http://hl7.org/fhir/us/vr-common-library/CodeSystem/codesystem-vr-component",
                  "code": "HispanicOther"
                }
              ]
            },
            "valueCodeableConcept": {
              "coding": [
                {
                  "code": "N",
                  "system": "http://terminology.hl7.org/CodeSystem/v2-0136",
                  "display": "No"
                }
              ]
            }
          }
        ],
        "status": "final",
        "code": {
          "coding": [
            {
              "code": "inputraceandethnicityFather",
              "system": "http://hl7.org/fhir/us/vr-common-library/CodeSystem/CodeSystem-local-observation-codes-vr"
            }
          ]
        }
      },
      "fullUrl": "http://www.example.org/fhir/InputRaceAndEthnicity/observation-input-race-and-ethnicity-father"
    },
    {
      "resource": {
        "resourceType": "Observation",
        "id": "observation-coded-race-and-ethnicity-mother",
        "meta": {
          "profile": [
            "http://hl7.org/fhir/us/vr-common-library/StructureDefinition/coded-race-and-ethnicity-vr"
          ]
        },
        "subject": {
          "display": "NCHS generated"
        },
        "component": [
          {
            "code": {
              "coding": [
                {
                  "system": "http://hl7.org/fhir/us/vr-common-library/CodeSystem/codesystem-vr-component",
                  "code": "FirstEditedCode"
                }
              ]
            },
            "valueCodeableConcept": {
              "coding": [
                {
                  "code": "101",
                  "system": "http://hl7.org/fhir/us/vr-common-library/CodeSystem/CodeSystem-race-code-vr",
                  "display": "White"
                }
              ]
            }
          },
          {
            "code": {
              "coding": [
                {
                  "system": "http://hl7.org/fhir/us/vr-common-library/CodeSystem/codesystem-vr-component",
                  "code": "SecondEditedCode"
                }
              ]
            },
            "valueCodeableConcept": {
              "coding": [
                {
                  "code": "122",
                  "system": "http://hl7.org/fhir/us/vr-common-library/CodeSystem/CodeSystem-race-code-vr",
                  "display": "Israeli"
                }
              ]
            }
          },
          {
            "code": {
              "coding": [
                {
                  "system": "http://hl7.org/fhir/us/vr-common-library/CodeSystem/codesystem-vr-component",
                  "code": "FirstAmericanIndianCode"
                }
              ]
            },
            "valueCodeableConcept": {
              "coding": [
                {
                  "code": "A31",
                  "system": "http://hl7.org/fhir/us/vr-common-library/CodeSystem/CodeSystem-race-code-vr",
                  "display": "Arikara"
                }
              ]
            }
          },
          {
            "code": {
              "coding": [
                {
                  "system": "http://hl7.org/fhir/us/vr-common-library/CodeSystem/codesystem-vr-component",
                  "code": "RaceRecode40"
                }
              ]
            },
            "valueCodeableConcept": {
              "coding": [
                {
                  "code": "20",
                  "system": "http://hl7.org/fhir/us/vr-common-library/CodeSystem/CodeSystem-race-recode-40-vr",
                  "display": "AIAN and Asian"
                }
              ]
            }
          },
          {
            "code": {
              "coding": [
                {
                  "system": "http://hl7.org/fhir/us/vr-common-library/CodeSystem/codesystem-vr-component",
                  "code": "HispanicCode"
                }
              ]
            },
            "valueCodeableConcept": {
              "coding": [
                {
                  "code": "233",
                  "system": "http://hl7.org/fhir/us/vr-common-library/CodeSystem/CodeSystem-hispanic-origin-vr",
                  "display": "Chilean"
                }
              ]
            }
          }
        ],
        "code": {
          "coding": [
            {
              "code": "codedraceandethnicityMother",
              "system": "http://hl7.org/fhir/us/vr-common-library/CodeSystem/CodeSystem-local-observation-codes-vr"
            }
          ]
        },
        "status": "final"
      },
      "fullUrl": "http://www.example.org/fhir/CodedRaceAndEthnicity/observation-coded-race-and-ethnicity-mother"
    },
    {
      "resource": {
        "resourceType": "Observation",
        "id": "observation-coded-race-and-ethnicity-father",
        "meta": {
          "profile": [
            "http://hl7.org/fhir/us/vr-common-library/StructureDefinition/coded-race-and-ethnicity-vr"
          ]
        },
        "subject": {
          "display": "NCHS generated"
        },
        "component": [
          {
            "code": {
              "coding": [
                {
                  "system": "http://hl7.org/fhir/us/vr-common-library/CodeSystem/codesystem-vr-component",
                  "code": "FirstEditedCode"
                }
              ]
            },
            "valueCodeableConcept": {
              "coding": [
                {
                  "code": "101",
                  "system": "http://hl7.org/fhir/us/vr-common-library/CodeSystem/CodeSystem-race-code-vr",
                  "display": "White"
                }
              ]
            }
          },
          {
            "code": {
              "coding": [
                {
                  "system": "http://hl7.org/fhir/us/vr-common-library/CodeSystem/codesystem-vr-component",
                  "code": "SecondEditedCode"
                }
              ]
            },
            "valueCodeableConcept": {
              "coding": [
                {
                  "code": "122",
                  "system": "http://hl7.org/fhir/us/vr-common-library/CodeSystem/CodeSystem-race-code-vr",
                  "display": "Israeli"
                }
              ]
            }
          },
          {
            "code": {
              "coding": [
                {
                  "system": "http://hl7.org/fhir/us/vr-common-library/CodeSystem/codesystem-vr-component",
                  "code": "FirstAmericanIndianCode"
                }
              ]
            },
            "valueCodeableConcept": {
              "coding": [
                {
                  "code": "A31",
                  "system": "http://hl7.org/fhir/us/vr-common-library/CodeSystem/CodeSystem-race-code-vr",
                  "display": "Arikara"
                }
              ]
            }
          },
          {
            "code": {
              "coding": [
                {
                  "system": "http://hl7.org/fhir/us/vr-common-library/CodeSystem/codesystem-vr-component",
                  "code": "RaceRecode40"
                }
              ]
            },
            "valueCodeableConcept": {
              "coding": [
                {
                  "code": "20",
                  "system": "http://hl7.org/fhir/us/vr-common-library/CodeSystem/CodeSystem-race-recode-40-vr",
                  "display": "AIAN and Asian"
                }
              ]
            }
          },
          {
            "code": {
              "coding": [
                {
                  "system": "http://hl7.org/fhir/us/vr-common-library/CodeSystem/codesystem-vr-component",
                  "code": "HispanicCode"
                }
              ]
            },
            "valueCodeableConcept": {
              "coding": [
                {
                  "code": "233",
                  "system": "http://hl7.org/fhir/us/vr-common-library/CodeSystem/CodeSystem-hispanic-origin-vr",
                  "display": "Chilean"
                }
              ]
            }
          }
        ],
        "code": {
          "coding": [
            {
              "code": "codedraceandethnicityFather",
              "system": "http://hl7.org/fhir/us/vr-common-library/CodeSystem/CodeSystem-local-observation-codes-vr"
            }
          ]
        },
        "status": "final"
      },
      "fullUrl": "http://www.example.org/fhir/CodedRaceAndEthnicity/observation-coded-race-and-ethnicity-father"
    }
  ],
  "type": "collection"
}
