{
  "resourceType": "Bundle",
  "id": "bundle-jurisdiction-live-birth-babyg-quinn",
  "meta": {
    "profile": [
      "http://hl7.org/fhir/us/bfdr/StructureDefinition/BundleDocumentBFDR"
    ]
  },
  "identifier": {
    "system": "urn:ietf:rfc:3986",
    "value": "urn:uuid:101bec42-b799-4f3d-9188-b9cb376cc094"
  },
  "entry": [
    {
      "resource": {
        "resourceType": "Composition",
        "id": "composition-jurisdiction-live-birth-babyg-quinn",
        "meta": {
          "profile": [
            "http://hl7.org/fhir/us/bfdr/StructureDefinition/CompositionJurisdictionLiveBirthReport"
          ]
        },
        "extension": [
          {
            "valueIdentifier": {
              "type": {
                "coding": [
                  {
                    "code": "BCT",
                    "system": "http://terminology.hl7.org/CodeSystem/v2-0203"
                  }
                ]
              },
              "value": "15075"
            },
            "url": "http://hl7.org/fhir/us/bfdr/StructureDefinition/Extension-live-birth-certificate-number"
          },
          {
            "valueIdentifier": {
              "type": {
                "coding": [
                  {
                    "code": "BCFN",
                    "system": "http://terminology.hl7.org/CodeSystem/v2-0203"
                  }
                ]
              },
              "value": "4444-55555"
            },
            "url": "http://hl7.org/fhir/us/bfdr/StructureDefinition/Extension-live-birth-local-file-number"
          },
          {
            "url": "http://hl7.org/fhir/us/bfdr/StructureDefinition/Extension-date-filed-by-registrar",
            "valueDateTime": "2019-02-12"
          }
        ],
        "identifier": {
          "value": "c03eab8c-11e8-4d0c-ad2a-b385395e27df"
        },
        "encounter": {
          "extension": [
            {
              "url": "http://hl7.org/fhir/us/bfdr/StructureDefinition/Extension-encounter-maternity-reference",
              "valueReference": {
                "reference": "Encounter/encounter-maternity-jada-ann-quinn",
                "display": "Encounter - Birth (Baby G Quinn)"
              }
            }
          ],
          "reference": "Encounter/encounter-birth-babyg-quinn",
          "display": "The Encounter for the Composition is the newborn's birth encounter."
        },
        "author": [
          {
            "reference": "Organization/organization-jurisdictional-vital-records-office",
            "display": "Jurisdictional Vital Records Office"
          }
        ],
        "section": [
          {
            "entry": [
              {
                "reference": "Observation/observation-planned-to-deliver-at-home-babyg-quinn",
                "display": "Observation - Planned to Deliver at Home (Jada Ann Quinn)"
              },
              {
                "reference": "Observation/observation-date-of-first-prenatal-care-visit-jada-ann-quinn",
                "display": "Observation - Date of First Prenantal Care Visit (Jada Ann Quinn)"
              },
              {
                "reference": "Observation/observation-number-prenatal-visits-jada-ann-quinn-w-edit",
                "display": "Observation - Number Prenatal Visits (Jada Ann Quinn)"
              },
              {
                "reference": "Observation/observation-last-menstrual-period-jada-ann-quinn",
                "display": "Observation - Last Menstrual Period (Jada Ann Quinn)"
              },
              {
                "reference": "Observation/observation-number-births-now-living-jada-ann-quinn",
                "display": "Observation - Number Births Now Living (Jada Ann Quinn)"
              },
              {
                "reference": "Observation/observation-number-births-now-dead-jada-ann-quinn",
                "display": "Observation - Number Births Now Dead (Jada Ann Quinn)"
              },
              {
                "reference": "Observation/observation-date-of-last-live-birth-jada-ann-quinn",
                "display": "Observation - Date of Last Live Birth (Jada Ann Quinn)"
              },
              {
                "reference": "Observation/observation-number-other-pregnancy-outcomes-jada-ann-quinn",
                "display": "Observation - Number Other Pregnancy Outcomes (Jada Ann Quinn)"
              },
              {
                "reference": "Observation/observation-date-of-last-other-pregnancy-outcome-jada-ann-quinn",
                "display": "Observation - Date of Last Other Pregnancy Outcome (Jada Ann Quinn)"
              },
              {
                "reference": "Coverage/coverage-principal-payer-for-delivery-jada-ann-quinn",
                "display": "Coverage - Principal Payer for Delivery (Jada Ann Quinn)"
              },
              {
                "reference": "Observation/observation-mother-delivery-weight-jada-ann-quinn-w-edit",
                "display": "Observation - Mother Delivery Weight (Jada Ann Quinn)"
              },
              {
                "reference": "Observation/observation-mother-height-jada-ann-quinn-w-edit",
                "display": "Observation - Observation - Mother Height (Jada Ann Quinn)"
              },
              {
                "reference": "Observation/observation-mother-prepregnancy-weight-jada-ann-quinn-w-edit",
                "display": "Observation - Mother Prepregnancy Weight (Jada Ann Quinn)"
              },
              {
                "reference": "Observation/observation-mother-received-wic-food-jada-ann-quinn",
                "display": "Observation - Mother Received WIC Food (Jada Ann Quinn)"
              },
              {
                "reference": "Observation/observation-cig-smoking-pregnancy-1-jada-ann-quinn",
                "display": "Observation - Cigarette Smoking Before/During Pregnancy (3 months prior: Jada Ann Quinn)"
              },
              {
                "reference": "Observation/observation-cig-smoking-pregnancy-2-jada-ann-quinn",
                "display": "Observation - Cigarette Smoking Before/During Pregnancy (first 3 months: Jada Ann Quinn)"
              },
              {
                "reference": "Observation/observation-cig-smoking-pregnancy-3-jada-ann-quinn",
                "display": "Observation - Cigarette Smoking Before/During Pregnancy (second 3 months: Jada Ann Quinn)"
              },
              {
                "reference": "Observation/observation-cig-smoking-pregnancy-4-jada-ann-quinn",
                "display": "Observation - Cigarette Smoking Before/During Pregnancy (last 3 months: Jada Ann Quinn)"
              }
            ],
            "code": {
              "coding": [
                {
                  "code": "57073-9",
                  "system": "http://loinc.org"
                }
              ]
            },
            "focus": {
              "reference": "Patient/patient-mother-jada-ann-quinn",
              "display": "Patient - Mother (Jada Ann Quinn)"
            }
          },
          {
            "entry": [
              {
                "reference": "Condition/condition-gestational-hypertension-jada-ann-quinn",
                "display": "Condition - Gestational Hypertension (Jada Ann Quinn)"
              },
              {
                "reference": "Observation/observation-number-previous-cesareans-jada-ann-quinn-w-edit",
                "display": "Observation - Number Previous Cesareans (Jada Ann Quinn)"
              },
              {
                "reference": "Condition/condition-infection-present-during-pregnancy-jada-ann-quinn",
                "display": "Condition - Infection Present During Pregnancy (Jada Ann Quinn)"
              },
              {
                "reference": "Procedure/procedure-obstetric-procedure-jada-ann-quinn",
                "display": "Procedure - Obstetric Procedure (Jada Ann Quinn)"
              },
              {
                "reference": "Condition/condition-chorioamnionitis-jada-ann-quinn",
                "display": "Condition - Characteristic of Labor and Delivery (Jada Ann Quinn: Chorioamnionitis)"
              },
              {
                "reference": "Procedure/procedure-induction-of-labor-jada-ann-quinn",
                "display": "Procedure - Characteristic of Labor and Delivery (Jada Ann Quinn: Induction of Labor)"
              },
              {
                "reference": "Observation/observation-fetal-presentation-babyg-quinn",
                "display": "Observation - Fetal Presentation (Baby G Quinn)"
              },
              {
                "reference": "Procedure/procedure-final-route-method-delivery-babyg-quinn",
                "display": "Procedure - Final Route and Method of Delivery (Baby G Quinn)"
              },
              {
                "reference": "Condition/condition-ruptured-uterus-jada-ann-quinn",
                "display": "Condition - Maternal Morbidity - Ruptured Uterus (Jada Ann Quinn)"
              }
            ],
            "code": {
              "coding": [
                {
                  "code": "55752-0",
                  "system": "http://loinc.org"
                }
              ]
            },
            "focus": {
              "reference": "Patient/patient-mother-jada-ann-quinn",
              "display": "Patient - Mother (Jada Ann Quinn)"
            }
          },
          {
            "entry": [
              {
                "reference": "Observation/observation-birth-weight-babyg-quinn-w-edit",
                "display": "Observation - Birth Weight (Baby G Quinn)"
              },
              {
                "reference": "Observation/observation-gestational-age-at-delivery-babyg-quinn-w-edit",
                "display": "Observation - Gestational Age at Delivery (Baby G Quinn)"
              },
              {
                "reference": "Observation/observation-apgar-score-babyg-quinn-1-min",
                "display": "Observation - Apgar Score (BabyG Quinn: 1 min)"
              },
              {
                "reference": "Observation/observation-apgar-score-babyg-quinn-5-min",
                "display": "Observation - Apgar Score (BabyG Quinn: 5 min)"
              },
              {
                "reference": "Observation/observation-number-live-births-this-delivery-jada-ann-quinn",
                "display": "Observation - Number Live Births This Delivery - Jada Ann Quinn"
              },
              {
                "reference": "Condition/condition-congenital-anomaly-of-newborn-babyg-quinn",
                "display": "Condition - Congenital Anomaly of Newborn (BabyG Quinn) 1"
              },
              {
                "reference": "Condition/condition-congenital-anomaly-of-newborn-babyg-quinn-2",
                "display": "Condition - Congenital Anomaly of Newborn (Baby G Quinn) 2"
              },
              {
                "reference": "Observation/observation-infant-living-babyg-quinn",
                "display": "Observation - Infant Living (Baby G Quinn)"
              },
              {
                "reference": "Observation/observation-infant-breastfed-at-discharge-babyg-quinn",
                "display": "Observation - Infant Breastfed at Discharge (Baby G Quinn)"
              }
            ],
            "code": {
              "coding": [
                {
                  "code": "57075-4",
                  "system": "http://loinc.org"
                }
              ]
            }
          },
          {
            "entry": [
              {
                "reference": "Observation/observation-mother-married-during-pregnancy-jada-ann-quinn",
                "display": "Observation - Mother Married During Pregnancy (Jada Ann Quinn)"
              },
              {
                "reference": "Observation/observation-parent-education-level-jada-ann-quinn-w-edit",
                "display": "Observation - Parent Education Level (Jada Ann Quinn)"
              },
              {
                "reference": "Observation/observation-ssn-requested-for-child-babyg-quinn",
                "display": "Observation - SSN Requested for Child (Jada Ann Quinn)"
              }
            ],
            "code": {
              "coding": [
                {
                  "code": "92014-0",
                  "system": "http://loinc.org"
                }
              ]
            },
            "focus": {
              "reference": "Patient/patient-mother-jada-ann-quinn",
              "display": "Patient - Mother (Jada Ann Quinn)"
            }
          },
          {
            "entry": [
              {
                "reference": "Observation/observation-paternity-acknowledgement-signed-james-quinn",
                "display": "Observation - Paternity Acknowledgement Signed (James Brandon Quinn)"
              },
              {
                "reference": "Observation/observation-parent-education-level-james-quinn-w-edit",
                "display": "Observation - Parent Education Level (James Brandon Quinn)"
              }
            ],
            "code": {
              "coding": [
                {
                  "code": "92013-2",
                  "system": "http://loinc.org"
                }
              ]
            },
            "focus": {
              "reference": "RelatedPerson/relatedperson-father-natural-james-brandon-quinn-w-edit",
              "display": "RelatedPerson - Father (James Brandon Quinn)"
            }
          }
        ],
        "type": {
          "coding": [
            {
              "code": "92011-6",
              "system": "http://loinc.org",
              "display": "Jurisdiction live birth report Document"
            }
          ]
        },
        "status": "final",
        "subject": {
          "reference": "Patient/patient-child-babyg-quinn",
          "display": "Patient - Child (Baby G Quinn)"
        },
        "date": "2019-02-12",
        "title": "Jurisdiction live birth report Document"
      },
      "fullUrl": "http://www.example.org/fhir/CompositionJurisdictionLiveBirthReport/composition-jurisdiction-live-birth-babyg-quinn"
    },
    {
      "resource": {
        "resourceType": "Patient",
        "id": "patient-child-babyg-quinn",
        "meta": {
          "profile": [
            "http://hl7.org/fhir/us/vr-common-library/StructureDefinition/Patient-child-vr"
          ]
        },
        "extension": [
          {
            "extension": [
              {
                "url": "ombCategory",
                "valueCoding": {
                  "code": "2106-3",
                  "system": "urn:oid:2.16.840.1.113883.6.238",
                  "display": "White"
                }
              },
              {
                "url": "text",
                "valueString": "White"
              }
            ],
            "url": "http://hl7.org/fhir/us/core/StructureDefinition/us-core-race"
          },
          {
            "extension": [
              {
                "url": "ombCategory",
                "valueCoding": {
                  "code": "2186-5",
                  "system": "urn:oid:2.16.840.1.113883.6.238",
                  "display": "Not Hispanic or Latino"
                }
              },
              {
                "url": "text",
                "valueString": "Not Hispanic or Latino"
              }
            ],
            "url": "http://hl7.org/fhir/us/core/StructureDefinition/us-core-ethnicity"
          },
          {
            "url": "http://hl7.org/fhir/us/core/StructureDefinition/us-core-birthsex",
            "valueCode": "F"
          },
          {
            "valueAddress": {
              "city": "Salt Lake City",
              "district": "Salt Lake",
              "state": "UT"
            },
            "url": "http://hl7.org/fhir/StructureDefinition/patient-birthPlace"
          }
        ],
        "identifier": [
          {
            "use": "usual",
            "type": {
              "coding": [
                {
                  "code": "MR",
                  "system": "http://terminology.hl7.org/CodeSystem/v2-0203",
                  "display": "Medical Record Number"
                }
              ]
            },
            "system": "http://hospital.smarthealthit.org",
            "value": "9932702"
          }
        ],
        "name": [
          {
            "given": [
              "Baby",
              "G"
            ],
            "use": "usual",
            "family": "Quinn"
          }
        ],
        "gender": "female",
        "birthDate": "2019-02-12",
        "_birthDate": {
          "extension": [
            {
              "url": "http://hl7.org/fhir/StructureDefinition/patient-birthTime",
              "valueDateTime": "2019-02-12T13:00:00-07:00"
            }
          ]
        },
        "multipleBirthInteger": 1
      },
      "fullUrl": "http://www.example.org/fhir/Patient/patient-child-babyg-quinn"
    },
    {
      "resource": {
        "resourceType": "Encounter",
        "id": "encounter-birth-babyg-quinn",
        "meta": {
          "profile": [
            "http://hl7.org/fhir/us/bfdr/StructureDefinition/Encounter-birth"
          ]
        },
        "identifier": [
          {
            "system": "http://hospital.smarthealthit.org",
            "value": "9937012"
          }
        ],
        "type": [
          {
            "coding": [
              {
                "code": "99234",
                "system": "http://www.ama-assn.org/go/cpt"
              }
            ],
            "text": "Under Observation or Inpatient Care Services (Including Admission and Discharge Services)"
          }
        ],
        "participant": [
          {
            "type": [
              {
                "coding": [
                  {
                    "code": "87287-9",
                    "system": "http://loinc.org",
                    "display": "Birth certifier [Extended Identifier]"
                  }
                ]
              }
            ],
            "period": {
              "start": "2019-02-12T13:30:00-07:00"
            },
            "individual": {
              "reference": "Practitioner/practitioner-vital-records-avery-jones",
              "display": "Practitioner - Vital Records (Avery Jones, MD)"
            }
          },
          {
            "type": [
              {
                "coding": [
                  {
                    "code": "87286-1",
                    "system": "http://loinc.org",
                    "display": "Birth attendant [Extended Identifier]"
                  }
                ]
              }
            ],
            "individual": {
              "reference": "Practitioner/practitioner-vital-records-avery-jones",
              "display": "Practitioner - Vital Records (Avery Jones, MD)"
            }
          }
        ],
        "period": {
          "start": "2019-02-12T13:00:00-07:00",
          "end": "2019-02-15T10:00:00-07:00"
        },
        "hospitalization": {
          "dischargeDisposition": {
            "coding": [
              {
                "code": "other-hcf",
                "system": "http://terminology.hl7.org/CodeSystem/discharge-disposition",
                "display": "Other healthcare facility"
              }
            ],
            "text": "The patient was transferred to another healthcare facility."
          },
          "destination": {
            "reference": "Location/location-east-hospital",
            "display": "East Hospital Location"
          }
        },
        "location": [
          {
            "location": {
              "reference": "Location/location-south-hospital",
              "display": "Location - US Core Location (South Hospital)"
            },
            "physicalType": {
              "coding": [
                {
                  "code": "22232009",
                  "system": "http://snomed.info/sct",
                  "display": "Hospital"
                }
              ]
            }
          }
        ],
        "status": "finished",
        "class": {
          "code": "IMP",
          "system": "http://terminology.hl7.org/CodeSystem/v3-ActCode",
          "display": "inpatient encounter"
        },
        "subject": {
          "reference": "Patient/patient-child-babyg-quinn",
          "display": "BabyG Quinn"
        },
        "partOf": {
          "reference": "Encounter/encounter-maternity-jada-ann-quinn",
          "display": "Maternity Encounter - Jada Ann Quinn"
        }
      },
      "fullUrl": "http://www.example.org/fhir/Encounter/encounter-birth-babyg-quinn"
    },
    {
      "resource": {
        "resourceType": "Encounter",
        "id": "encounter-maternity-jada-ann-quinn",
        "meta": {
          "profile": [
            "http://hl7.org/fhir/us/bfdr/StructureDefinition/Encounter-maternity"
          ]
        },
        "identifier": [
          {
            "system": "http://hospital.smarthealthit.org",
            "value": "9937012"
          }
        ],
        "type": [
          {
            "coding": [
              {
                "code": "99234",
                "system": "http://www.ama-assn.org/go/cpt"
              }
            ],
            "text": "Under Observation or Inpatient Care Services (Including Admission and Discharge Services)"
          }
        ],
        "participant": [
          {
            "type": [
              {
                "coding": [
                  {
                    "code": "87286-1",
                    "system": "http://loinc.org",
                    "display": "Birth attendant [Extended Identifier]"
                  }
                ]
              }
            ],
            "individual": {
              "reference": "Practitioner/practitioner-vital-records-avery-jones",
              "display": "Practitioner - Vital Records (Avery Jones, MD)"
            }
          }
        ],
        "period": {
          "start": "2019-02-11T10:00:00-07:00",
          "end": "2019-02-15T10:00:00-07:00"
        },
        "hospitalization": {
          "admitSource": {
            "coding": [
              {
                "code": "hosp-trans",
                "system": "http://terminology.hl7.org/CodeSystem/admit-source",
                "display": "Transferred from other hospital"
              }
            ],
            "text": "The Patient has been transferred from another hospital for this encounter."
          },
          "origin": {
            "reference": "Location/location-north-hospital",
            "display": "Location - US Core Location (North Hospital)"
          }
        },
        "location": [
          {
            "location": {
              "reference": "Location/location-south-hospital",
              "display": "Location - US Core Location (South Hospital)"
            },
            "physicalType": {
              "coding": [
                {
                  "code": "22232009",
                  "system": "http://snomed.info/sct",
                  "display": "Hospital"
                }
              ]
            }
          }
        ],
        "status": "finished",
        "class": {
          "code": "IMP",
          "system": "http://terminology.hl7.org/CodeSystem/v3-ActCode",
          "display": "inpatient encounter"
        },
        "subject": {
          "reference": "Patient/patient-mother-jada-ann-quinn",
          "display": "Patient - Mother (Jada Ann Quinn)"
        },
        "serviceProvider": {
          "reference": "Organization/organization-south-hospital",
          "display": "Organization - US Core Organization (South Hospital Organization)"
        }
      },
      "fullUrl": "http://www.example.org/fhir/Encounter/encounter-maternity-jada-ann-quinn"
    },
    {
      "resource": {
        "resourceType": "Organization",
        "id": "organization-jurisdictional-vital-records-office",
        "active": true,
        "name": "Jurisdictional Vital Records Office"
      },
      "fullUrl": "http://www.example.org/fhir/Organization/organization-jurisdictional-vital-records-office"
    },
    {
      "resource": {
        "resourceType": "Patient",
        "id": "patient-mother-jada-ann-quinn",
        "meta": {
          "profile": [
            "http://hl7.org/fhir/us/vr-common-library/StructureDefinition/Patient-mother-vr"
          ]
        },
        "extension": [
          {
            "extension": [
              {
                "url": "ombCategory",
                "valueCoding": {
                  "code": "1002-5",
                  "system": "urn:oid:2.16.840.1.113883.6.238",
                  "display": "American Indian or Alaska Native"
                }
              },
              {
                "url": "text",
                "valueString": "White, American Indian or Alaska Native"
              }
            ],
            "url": "http://hl7.org/fhir/us/core/StructureDefinition/us-core-race"
          },
          {
            "extension": [
              {
                "url": "ombCategory",
                "valueCoding": {
                  "code": "2186-5",
                  "system": "urn:oid:2.16.840.1.113883.6.238",
                  "display": "Not Hispanic or Latino"
                }
              },
              {
                "url": "text",
                "valueString": "Not Hispanic or Latino"
              }
            ],
            "url": "http://hl7.org/fhir/us/core/StructureDefinition/us-core-ethnicity"
          },
          {
            "url": "http://hl7.org/fhir/us/core/StructureDefinition/us-core-birthsex",
            "valueCode": "F"
          },
          {
            "valueAddress": {
              "state": "UT"
            },
            "url": "http://hl7.org/fhir/StructureDefinition/patient-birthPlace"
          }
        ],
        "identifier": [
          {
            "use": "usual",
            "type": {
              "coding": [
                {
                  "code": "SS",
                  "system": "http://terminology.hl7.org/CodeSystem/v2-0203",
                  "display": "Social Security number"
                }
              ]
            },
            "system": "http://hl7.org/fhir/sid/us-ssn",
            "value": "132225986"
          },
          {
            "use": "usual",
            "type": {
              "coding": [
                {
                  "code": "MR",
                  "system": "http://terminology.hl7.org/CodeSystem/v2-0203",
                  "display": "Medical Record Number"
                }
              ]
            },
            "system": "http://hospital.smarthealthit.org",
            "value": "1032702"
          }
        ],
        "name": [
          {
            "given": [
              "Jada",
              "Ann"
            ],
            "use": "official",
            "family": "Quinn"
          },
          {
            "given": [
              "Jada",
              "Ann"
            ],
            "use": "maiden",
            "family": "King"
          }
        ],
        "telecom": [
          {
            "system": "phone",
            "value": "1-(404)555-1212",
            "use": "home"
          },
          {
            "system": "email",
            "value": "jadaann.quinn@example.com"
          }
        ],
        "address": [
          {
            "extension": [
              {
                "url": "http://hl7.org/fhir/us/vr-common-library/StructureDefinition/Extension-within-city-limits-indicator-vr",
                "valueCoding": {
                  "code": "Y",
                  "system": "http://terminology.hl7.org/CodeSystem/v2-0136",
                  "display": "Yes"
                }
              }
            ],
            "line": [
              "1875 West Morton Avenue"
            ],
            "use": "home",
            "city": "Salt Lake City",
            "district": "Salt Lake",
            "state": "UT",
            "postalCode": "84116",
            "country": "US"
          },
          {
            "line": [
              "1848 South 1300 East"
            ],
            "use": "billing",
            "city": "Salt Lake City",
            "state": "UT",
            "postalCode": "84401",
            "country": "US"
          }
        ],
        "gender": "female",
        "birthDate": "1985-01-15"
      },
      "fullUrl": "http://www.example.org/fhir/Patient/patient-mother-jada-ann-quinn"
    },
    {
      "resource": {
        "resourceType": "Observation",
        "id": "observation-planned-to-deliver-at-home-babyg-quinn",
        "meta": {
          "profile": [
            "http://hl7.org/fhir/us/bfdr/StructureDefinition/Observation-planned-to-deliver-at-home"
          ]
        },
        "focus": [
          {
            "reference": "Patient/patient-child-babyg-quinn",
            "display": "BabyG Quinn"
          }
        ],
        "performer": [
          {
            "reference": "Patient/patient-mother-jada-ann-quinn"
          }
        ],
        "code": {
          "coding": [
            {
              "code": "73765-0",
              "system": "http://loinc.org"
            }
          ]
        },
        "status": "final",
        "subject": {
          "reference": "Patient/patient-mother-jada-ann-quinn",
          "display": "Patient - Mother (Jada Ann Quinn)"
        },
        "issued": "2019-02-11T20:02:00-07:00",
        "effectiveDateTime": "2019-12-02",
        "valueBoolean": true
      },
      "fullUrl": "http://www.example.org/fhir/Observation/observation-planned-to-deliver-at-home-babyg-quinn"
    },
    {
      "resource": {
        "resourceType": "Observation",
        "id": "observation-date-of-first-prenatal-care-visit-jada-ann-quinn",
        "meta": {
          "profile": [
            "http://hl7.org/fhir/us/bfdr/StructureDefinition/Observation-date-of-first-prenatal-care-visit"
          ]
        },
        "code": {
          "coding": [
            {
              "code": "69044-6",
              "system": "http://loinc.org",
              "display": "Date first prenatal visit"
            }
          ],
          "text": "Date of first prenatal care visit"
        },
        "focus": [
          {
            "reference": "Patient/patient-child-babyg-quinn",
            "display": "BabyG Quinn"
          }
        ],
        "performer": [
          {
            "reference": "Practitioner/practitioner-vital-records-janet-seito"
          }
        ],
        "status": "final",
        "subject": {
          "reference": "Patient/patient-mother-jada-ann-quinn",
          "display": "Patient - Mother (Jada Ann Quinn)"
        },
        "effectiveDateTime": "2019-12-02",
        "valueDateTime": "2018-07-20"
      },
      "fullUrl": "http://www.example.org/fhir/Observation/observation-date-of-first-prenatal-care-visit-jada-ann-quinn"
    },
    {
      "resource": {
        "resourceType": "Observation",
        "id": "observation-number-prenatal-visits-jada-ann-quinn-w-edit",
        "meta": {
          "profile": [
            "http://hl7.org/fhir/us/bfdr/StructureDefinition/Observation-number-prenatal-visits"
          ]
        },
        "code": {
          "coding": [
            {
              "code": "68493-6",
              "system": "http://loinc.org",
              "display": "Prenatal visits for this pregnancy #"
            }
          ],
          "text": "Prenatal visits for this pregnancy #"
        },
        "focus": [
          {
            "reference": "Patient/patient-child-babyg-quinn",
            "display": "BabyG Quinn"
          }
        ],
        "performer": [
          {
            "reference": "Practitioner/practitioner-vital-records-janet-seito"
          }
        ],
        "status": "final",
        "subject": {
          "reference": "Patient/patient-mother-jada-ann-quinn",
          "display": "Patient - Mother (Jada Ann Quinn)"
        },
        "effectiveDateTime": "2019-12-02",
        "valueInteger": 8,
        "_valueInteger": {
          "extension": [
            {
              "url": "http://hl7.org/fhir/us/vr-common-library/StructureDefinition/BypassEditFlag",
              "valueCodeableConcept": {
                "coding": [
                  {
                    "code": "editBypass0",
                    "system": "http://hl7.org/fhir/us/vr-common-library/CodeSystem/CodeSystem-vr-edit-flags",
                    "display": "Edit Passed"
                  }
                ]
              }
            }
          ]
        }
      },
      "fullUrl": "http://www.example.org/fhir/Observation/observation-number-prenatal-visits-jada-ann-quinn-w-edit"
    },
    {
      "resource": {
        "resourceType": "Observation",
        "id": "observation-last-menstrual-period-jada-ann-quinn",
        "meta": {
          "profile": [
            "http://hl7.org/fhir/us/bfdr/StructureDefinition/Observation-last-menstrual-period"
          ]
        },
        "code": {
          "coding": [
            {
              "code": "8665-2",
              "system": "http://loinc.org",
              "display": "Last menstrual period start date"
            }
          ],
          "text": "Last menstrual period start date"
        },
        "performer": [
          {
            "reference": "Practitioner/practitioner-vital-records-janet-seito"
          }
        ],
        "status": "final",
        "subject": {
          "reference": "Patient/patient-mother-jada-ann-quinn",
          "display": "Patient - Mother (Jada Ann Quinn)"
        },
        "effectiveDateTime": "2019-12-02",
        "valueDateTime": "2018-06-05"
      },
      "fullUrl": "http://www.example.org/fhir/Observation/observation-last-menstrual-period-jada-ann-quinn"
    },
    {
      "resource": {
        "resourceType": "Observation",
        "id": "observation-number-births-now-living-jada-ann-quinn",
        "meta": {
          "profile": [
            "http://hl7.org/fhir/us/bfdr/StructureDefinition/Observation-number-births-now-living"
          ]
        },
        "code": {
          "coding": [
            {
              "code": "11638-4",
              "system": "http://loinc.org",
              "display": "[#] Births.still living"
            }
          ],
          "text": "[#] Births.still living"
        },
        "performer": [
          {
            "reference": "Practitioner/practitioner-vital-records-janet-seito"
          }
        ],
        "status": "final",
        "subject": {
          "reference": "Patient/patient-mother-jada-ann-quinn",
          "display": "Patient - Mother (Jada Ann Quinn)"
        },
        "effectiveDateTime": "2019-12-02",
        "valueInteger": 1
      },
      "fullUrl": "http://www.example.org/fhir/Observation/observation-number-births-now-living-jada-ann-quinn"
    },
    {
      "resource": {
        "resourceType": "Observation",
        "id": "observation-number-births-now-dead-jada-ann-quinn",
        "meta": {
          "profile": [
            "http://hl7.org/fhir/us/bfdr/StructureDefinition/Observation-number-births-now-dead"
          ]
        },
        "code": {
          "coding": [
            {
              "code": "68496-9",
              "system": "http://loinc.org",
              "display": "Previous live births now dead #"
            }
          ],
          "text": "Previous live births now dead #"
        },
        "performer": [
          {
            "reference": "Practitioner/practitioner-vital-records-janet-seito"
          }
        ],
        "status": "final",
        "subject": {
          "reference": "Patient/patient-mother-jada-ann-quinn",
          "display": "Patient - Mother (Jada Ann Quinn)"
        },
        "effectiveDateTime": "2019-12-02",
        "valueInteger": 0
      },
      "fullUrl": "http://www.example.org/fhir/Observation/observation-number-births-now-dead-jada-ann-quinn"
    },
    {
      "resource": {
        "resourceType": "Observation",
        "id": "observation-date-of-last-live-birth-jada-ann-quinn",
        "meta": {
          "profile": [
            "http://hl7.org/fhir/us/bfdr/StructureDefinition/Observation-date-of-last-live-birth"
          ]
        },
        "code": {
          "coding": [
            {
              "code": "68499-3",
              "system": "http://loinc.org",
              "display": "Date last live birth"
            }
          ],
          "text": "Date of last live birth"
        },
        "performer": [
          {
            "reference": "Practitioner/practitioner-vital-records-janet-seito"
          }
        ],
        "status": "final",
        "subject": {
          "reference": "Patient/patient-mother-jada-ann-quinn",
          "display": "Patient - Mother (Jada Ann Quinn)"
        },
        "effectiveDateTime": "2019-12-02",
        "valueDateTime": "2014-11-20"
      },
      "fullUrl": "http://www.example.org/fhir/Observation/observation-date-of-last-live-birth-jada-ann-quinn"
    },
    {
      "resource": {
        "resourceType": "Observation",
        "id": "observation-number-other-pregnancy-outcomes-jada-ann-quinn",
        "meta": {
          "profile": [
            "http://hl7.org/fhir/us/bfdr/StructureDefinition/Observation-number-other-pregnancy-outcomes"
          ]
        },
        "code": {
          "coding": [
            {
              "code": "69043-8",
              "system": "http://loinc.org",
              "display": "Other pregnancy outcomes #"
            }
          ],
          "text": "Other pregnancy outcomes #"
        },
        "performer": [
          {
            "reference": "Practitioner/practitioner-vital-records-janet-seito"
          }
        ],
        "status": "final",
        "subject": {
          "reference": "Patient/patient-mother-jada-ann-quinn",
          "display": "Patient - Mother (Jada Ann Quinn)"
        },
        "effectiveDateTime": "2019-12-02",
        "valueInteger": 0
      },
      "fullUrl": "http://www.example.org/fhir/Observation/observation-number-other-pregnancy-outcomes-jada-ann-quinn"
    },
    {
      "resource": {
        "resourceType": "Observation",
        "id": "observation-date-of-last-other-pregnancy-outcome-jada-ann-quinn",
        "meta": {
          "profile": [
            "http://hl7.org/fhir/us/bfdr/StructureDefinition/Observation-date-of-last-other-pregnancy-outcome"
          ]
        },
        "code": {
          "coding": [
            {
              "code": "68500-8",
              "system": "http://loinc.org",
              "display": "Date last other pregnancy outcome"
            }
          ],
          "text": "Date of last other pregnancy outcome"
        },
        "performer": [
          {
            "reference": "Practitioner/practitioner-vital-records-janet-seito"
          }
        ],
        "status": "final",
        "subject": {
          "reference": "Patient/patient-mother-jada-ann-quinn",
          "display": "Patient - Mother (Jada Ann Quinn)"
        },
        "effectiveDateTime": "2019-12-02",
        "valueDateTime": "2015-05"
      },
      "fullUrl": "http://www.example.org/fhir/Observation/observation-date-of-last-other-pregnancy-outcome-jada-ann-quinn"
    },
    {
      "resource": {
        "resourceType": "Coverage",
        "id": "coverage-principal-payer-for-delivery-jada-ann-quinn",
        "meta": {
          "profile": [
            "http://hl7.org/fhir/us/bfdr/StructureDefinition/Coverage-principal-payer-delivery"
          ]
        },
        "type": {
          "coding": [
            {
              "code": "privateinsurance",
              "system": "http://hl7.org/fhir/us/bfdr/CodeSystem/CodeSystem-vr-birth-and-fetal-death-financial-class",
              "display": "PRIVATE HEALTH INSURANCE"
            }
          ],
          "text": "Private Health Insurance"
        },
        "payor": [
          {
            "extension": [
              {
                "url": "http://hl7.org/fhir/StructureDefinition/data-absent-reason",
                "valueCode": "not-asked"
              }
            ],
            "display": "Not asked"
          }
        ],
        "status": "active",
        "beneficiary": {
          "reference": "Patient/patient-mother-jada-ann-quinn",
          "display": "Patient - Mother (Jada Ann Quinn)"
        }
      },
      "fullUrl": "http://www.example.org/fhir/Coverage/coverage-principal-payer-for-delivery-jada-ann-quinn"
    },
    {
      "resource": {
        "resourceType": "Observation",
        "id": "observation-mother-delivery-weight-jada-ann-quinn-w-edit",
        "meta": {
          "profile": [
            "http://hl7.org/fhir/us/bfdr/StructureDefinition/Observation-mother-delivery-weight"
          ]
        },
        "category": [
          {
            "coding": [
              {
                "system": "http://terminology.hl7.org/CodeSystem/observation-category",
                "code": "vital-signs",
                "display": "Vital Signs"
              }
            ]
          }
        ],
        "performer": [
          {
            "reference": "Practitioner/practitioner-vital-records-janet-seito"
          }
        ],
        "valueQuantity": {
          "extension": [
            {
              "url": "http://hl7.org/fhir/us/vr-common-library/StructureDefinition/BypassEditFlag",
              "valueCodeableConcept": {
                "coding": [
                  {
                    "code": "editBypass0",
                    "system": "http://hl7.org/fhir/us/vr-common-library/CodeSystem/CodeSystem-vr-edit-flags",
                    "display": "Edit Passed"
                  }
                ]
              }
            }
          ],
          "value": 175,
          "code": "[lb_av]",
          "system": "http://unitsofmeasure.org"
        },
        "code": {
          "coding": [
            {
              "code": "69461-2",
              "system": "http://loinc.org",
              "display": "Mother's body weight --at delivery"
            }
          ]
        },
        "status": "final",
        "subject": {
          "reference": "Patient/patient-mother-jada-ann-quinn",
          "display": "Patient - Mother (Jada Ann Quinn)"
        },
        "effectiveDateTime": "2019-02-12"
      },
      "fullUrl": "http://www.example.org/fhir/Observation/observation-mother-delivery-weight-jada-ann-quinn-w-edit"
    },
    {
      "resource": {
        "resourceType": "Observation",
        "id": "observation-mother-height-jada-ann-quinn-w-edit",
        "meta": {
          "profile": [
            "http://hl7.org/fhir/us/bfdr/StructureDefinition/Observation-mother-height"
          ]
        },
        "performer": [
          {
            "reference": "Patient/patient-mother-jada-ann-quinn"
          }
        ],
        "valueQuantity": {
          "extension": [
            {
              "url": "http://hl7.org/fhir/us/vr-common-library/StructureDefinition/BypassEditFlag",
              "valueCodeableConcept": {
                "coding": [
                  {
                    "code": "editBypass0",
                    "system": "http://hl7.org/fhir/us/vr-common-library/CodeSystem/CodeSystem-vr-edit-flags",
                    "display": "Edit Passed"
                  }
                ]
              }
            }
          ],
          "system": "http://unitsofmeasure.org",
          "value": 67,
          "code": "[in_i]",
          "unit": "in"
        },
        "code": {
          "coding": [
            {
              "system": "http://loinc.org",
              "code": "8302-2"
            }
          ]
        },
        "category": [
          {
            "coding": [
              {
                "system": "http://terminology.hl7.org/CodeSystem/observation-category",
                "code": "vital-signs"
              }
            ]
          }
        ],
        "status": "final",
        "subject": {
          "reference": "Patient/patient-mother-jada-ann-quinn",
          "display": "Patient - Mother (Jada Ann Quinn)"
        },
        "effectiveDateTime": "2019-02-10"
      },
      "fullUrl": "http://www.example.org/fhir/Observation/observation-mother-height-jada-ann-quinn-w-edit"
    },
    {
      "resource": {
        "resourceType": "Observation",
        "id": "observation-mother-prepregnancy-weight-jada-ann-quinn-w-edit",
        "meta": {
          "profile": [
            "http://hl7.org/fhir/us/bfdr/StructureDefinition/Observation-mother-prepregnancy-weight"
          ]
        },
        "category": [
          {
            "coding": [
              {
                "system": "http://terminology.hl7.org/CodeSystem/observation-category",
                "code": "vital-signs",
                "display": "Vital Signs"
              }
            ]
          }
        ],
        "performer": [
          {
            "reference": "Practitioner/practitioner-vital-records-janet-seito"
          }
        ],
        "valueQuantity": {
          "extension": [
            {
              "url": "http://hl7.org/fhir/us/vr-common-library/StructureDefinition/BypassEditFlag",
              "valueCodeableConcept": {
                "coding": [
                  {
                    "code": "editBypass0",
                    "system": "http://hl7.org/fhir/us/vr-common-library/CodeSystem/CodeSystem-vr-edit-flags",
                    "display": "Edit Passed"
                  }
                ]
              }
            }
          ],
          "value": 145,
          "code": "[lb_av]",
          "system": "http://unitsofmeasure.org"
        },
        "code": {
          "coding": [
            {
              "code": "56077-1",
              "system": "http://loinc.org",
              "display": "Body weight --pre current pregnancy"
            }
          ]
        },
        "status": "final",
        "subject": {
          "reference": "Patient/patient-mother-jada-ann-quinn",
          "display": "Patient - Mother (Jada Ann Quinn)"
        },
        "effectiveDateTime": "2019-12-02"
      },
      "fullUrl": "http://www.example.org/fhir/Observation/observation-mother-prepregnancy-weight-jada-ann-quinn-w-edit"
    },
    {
      "resource": {
        "resourceType": "Observation",
        "id": "observation-mother-received-wic-food-jada-ann-quinn",
        "meta": {
          "profile": [
            "http://hl7.org/fhir/us/bfdr/StructureDefinition/Observation-mother-received-wic-food"
          ]
        },
        "focus": [
          {
            "reference": "Patient/patient-child-babyg-quinn",
            "display": "BabyG Quinn"
          }
        ],
        "performer": [
          {
            "reference": "Practitioner/practitioner-vital-records-janet-seito"
          }
        ],
        "code": {
          "coding": [
            {
              "code": "87303-4",
              "system": "http://loinc.org"
            }
          ]
        },
        "status": "final",
        "subject": {
          "reference": "Patient/patient-mother-jada-ann-quinn",
          "display": "Patient - Mother (Jada Ann Quinn)"
        },
        "effectiveDateTime": "2019-12-02",
        "valueCodeableConcept": {
          "coding": [
            {
              "code": "Y",
              "system": "http://terminology.hl7.org/CodeSystem/v2-0136",
              "display": "Yes"
            }
          ]
        }
      },
      "fullUrl": "http://www.example.org/fhir/Observation/observation-mother-received-wic-food-jada-ann-quinn"
    },
    {
      "resource": {
        "resourceType": "Observation",
        "id": "observation-cig-smoking-pregnancy-1-jada-ann-quinn",
        "meta": {
          "profile": [
            "http://hl7.org/fhir/us/bfdr/StructureDefinition/Observation-cigarette-smoking-before-during-pregnancy"
          ]
        },
        "code": {
          "coding": [
            {
              "code": "64794-1",
              "system": "http://loinc.org",
              "display": "In the 3 months before you got pregnant, how many cigarettes did you smoke on an average day [PhenX]"
            }
          ],
          "text": "In the 3 months before you got pregnant, how many cigarettes did you smoke on an average day [PhenX]"
        },
        "focus": [
          {
            "reference": "Patient/patient-child-babyg-quinn",
            "display": "BabyG Quinn"
          }
        ],
        "performer": [
          {
            "reference": "Patient/patient-mother-jada-ann-quinn"
          }
        ],
        "status": "final",
        "subject": {
          "reference": "Patient/patient-mother-jada-ann-quinn",
          "display": "Patient - Mother (Jada Ann Quinn)"
        },
        "effectiveDateTime": "2019-12-02",
        "valueInteger": 20
      },
      "fullUrl": "http://www.example.org/fhir/Observation/observation-cig-smoking-pregnancy-1-jada-ann-quinn"
    },
    {
      "resource": {
        "resourceType": "Observation",
        "id": "observation-cig-smoking-pregnancy-2-jada-ann-quinn",
        "meta": {
          "profile": [
            "http://hl7.org/fhir/us/bfdr/StructureDefinition/Observation-cigarette-smoking-before-during-pregnancy"
          ]
        },
        "code": {
          "coding": [
            {
              "code": "87298-6",
              "system": "http://loinc.org",
              "display": "Cigarettes smoked per day by Mother--1st trimester"
            }
          ],
          "text": "Cigarettes smoked per day by Mother--1st trimester"
        },
        "focus": [
          {
            "reference": "Patient/patient-child-babyg-quinn",
            "display": "BabyG Quinn"
          }
        ],
        "performer": [
          {
            "reference": "Patient/patient-mother-jada-ann-quinn"
          }
        ],
        "status": "final",
        "subject": {
          "reference": "Patient/patient-mother-jada-ann-quinn",
          "display": "Patient - Mother (Jada Ann Quinn)"
        },
        "effectiveDateTime": "2019-12-02",
        "valueInteger": 3
      },
      "fullUrl": "http://www.example.org/fhir/Observation/observation-cig-smoking-pregnancy-2-jada-ann-quinn"
    },
    {
      "resource": {
        "resourceType": "Observation",
        "id": "observation-cig-smoking-pregnancy-3-jada-ann-quinn",
        "meta": {
          "profile": [
            "http://hl7.org/fhir/us/bfdr/StructureDefinition/Observation-cigarette-smoking-before-during-pregnancy"
          ]
        },
        "code": {
          "coding": [
            {
              "code": "87299-4",
              "system": "http://loinc.org",
              "display": "Cigarettes smoked per day by Mother--2nd trimester"
            }
          ],
          "text": "Cigarettes smoked per day by Mother--2nd trimester"
        },
        "focus": [
          {
            "reference": "Patient/patient-child-babyg-quinn",
            "display": "BabyG Quinn"
          }
        ],
        "performer": [
          {
            "reference": "Patient/patient-mother-jada-ann-quinn"
          }
        ],
        "status": "final",
        "subject": {
          "reference": "Patient/patient-mother-jada-ann-quinn",
          "display": "Patient - Mother (Jada Ann Quinn)"
        },
        "effectiveDateTime": "2019-12-02",
        "valueInteger": 1
      },
      "fullUrl": "http://www.example.org/fhir/Observation/observation-cig-smoking-pregnancy-3-jada-ann-quinn"
    },
    {
      "resource": {
        "resourceType": "Observation",
        "id": "observation-cig-smoking-pregnancy-4-jada-ann-quinn",
        "meta": {
          "profile": [
            "http://hl7.org/fhir/us/bfdr/StructureDefinition/Observation-cigarette-smoking-before-during-pregnancy"
          ]
        },
        "code": {
          "coding": [
            {
              "code": "64795-8",
              "system": "http://loinc.org",
              "display": "In the last 3 months of your pregnancy, how many cigarettes did you smoke on an average day [PhenX]"
            }
          ],
          "text": "In the last 3 months of your pregnancy, how many cigarettes did you smoke on an average day [PhenX]"
        },
        "focus": [
          {
            "reference": "Patient/patient-child-babyg-quinn",
            "display": "BabyG Quinn"
          }
        ],
        "performer": [
          {
            "reference": "Patient/patient-mother-jada-ann-quinn"
          }
        ],
        "status": "final",
        "subject": {
          "reference": "Patient/patient-mother-jada-ann-quinn",
          "display": "Patient - Mother (Jada Ann Quinn)"
        },
        "effectiveDateTime": "2019-12-02",
        "valueInteger": 0
      },
      "fullUrl": "http://www.example.org/fhir/Observation/observation-cig-smoking-pregnancy-4-jada-ann-quinn"
    },
    {
      "resource": {
        "resourceType": "Condition",
        "id": "condition-gestational-hypertension-jada-ann-quinn",
        "meta": {
          "profile": [
            "http://hl7.org/fhir/us/bfdr/StructureDefinition/Condition-gestational-hypertension"
          ]
        },
        "clinicalStatus": {
          "coding": [
            {
              "code": "active",
              "system": "http://terminology.hl7.org/CodeSystem/condition-clinical",
              "display": "Active"
            }
          ],
          "text": "Active"
        },
        "category": [
          {
            "coding": [
              {
                "code": "problem-list-item",
                "system": "http://terminology.hl7.org/CodeSystem/condition-category"
              }
            ]
          },
          {
            "coding": [
              {
                "code": "73775-9",
                "system": "http://loinc.org"
              }
            ]
          }
        ],
        "code": {
          "coding": [
            {
              "code": "48194001",
              "system": "http://snomed.info/sct",
              "display": "Pregnancy-induced hypertension (disorder)"
            }
          ],
          "text": "Pregnancy-induced hypertension (disorder)"
        },
        "subject": {
          "reference": "Patient/patient-mother-jada-ann-quinn",
          "display": "Patient - Mother (Jada Ann Quinn)"
        }
      },
      "fullUrl": "http://www.example.org/fhir/Condition/condition-gestational-hypertension-jada-ann-quinn"
    },
    {
      "resource": {
        "resourceType": "Observation",
        "id": "observation-number-previous-cesareans-jada-ann-quinn-w-edit",
        "meta": {
          "profile": [
            "http://hl7.org/fhir/us/bfdr/StructureDefinition/Observation-number-previous-cesareans"
          ]
        },
        "code": {
          "coding": [
            {
              "code": "68497-7",
              "system": "http://loinc.org",
              "display": "Previous cesarean deliveries #"
            }
          ],
          "text": "Previous cesarean deliveries #"
        },
        "performer": [
          {
            "reference": "Practitioner/practitioner-vital-records-janet-seito"
          }
        ],
        "status": "final",
        "subject": {
          "reference": "Patient/patient-mother-jada-ann-quinn",
          "display": "Patient - Mother (Jada Ann Quinn)"
        },
        "effectiveDateTime": "2019-12-02",
        "valueInteger": 1,
        "_valueInteger": {
          "extension": [
            {
              "url": "http://hl7.org/fhir/us/vr-common-library/StructureDefinition/BypassEditFlag",
              "valueCodeableConcept": {
                "coding": [
                  {
                    "code": "editBypass0",
                    "system": "http://hl7.org/fhir/us/vr-common-library/CodeSystem/CodeSystem-vr-edit-flags",
                    "display": "Edit Passed"
                  }
                ]
              }
            }
          ]
        }
      },
      "fullUrl": "http://www.example.org/fhir/Observation/observation-number-previous-cesareans-jada-ann-quinn-w-edit"
    },
    {
      "resource": {
        "resourceType": "Condition",
        "id": "condition-infection-present-during-pregnancy-jada-ann-quinn",
        "meta": {
          "profile": [
            "http://hl7.org/fhir/us/bfdr/StructureDefinition/Condition-infection-present-during-pregnancy"
          ]
        },
        "category": [
          {
            "coding": [
              {
                "code": "problem-list-item",
                "system": "http://terminology.hl7.org/CodeSystem/condition-category",
                "display": "Problem List Item"
              }
            ]
          },
          {
            "coding": [
              {
                "code": "72519-2",
                "system": "http://loinc.org"
              }
            ]
          }
        ],
        "clinicalStatus": {
          "coding": [
            {
              "code": "active",
              "system": "http://terminology.hl7.org/CodeSystem/condition-clinical",
              "display": "Active"
            }
          ],
          "text": "Active"
        },
        "code": {
          "coding": [
            {
              "code": "105629000",
              "system": "http://snomed.info/sct",
              "display": "Chlamydial infection (disorder)"
            }
          ],
          "text": "Chlamydial infection (disorder)"
        },
        "subject": {
          "reference": "Patient/patient-mother-jada-ann-quinn",
          "display": "Patient - Mother (Jada Ann Quinn)"
        }
      },
      "fullUrl": "http://www.example.org/fhir/Condition/condition-infection-present-during-pregnancy-jada-ann-quinn"
    },
    {
      "resource": {
        "resourceType": "Procedure",
        "id": "procedure-obstetric-procedure-jada-ann-quinn",
        "meta": {
          "profile": [
            "http://hl7.org/fhir/us/bfdr/StructureDefinition/Procedure-obstetric"
          ]
        },
        "code": {
          "coding": [
            {
              "code": "240278000",
              "system": "http://snomed.info/sct",
              "display": "External cephalic version (procedure)"
            }
          ],
          "text": "External cephalic version: Failed"
        },
        "performedPeriod": {
          "start": "2019-02-07T08:30:00-07:00",
          "end": "2019-02-07T08:45:00-07:00"
        },
        "outcome": {
          "coding": [
            {
              "code": "385671000",
              "system": "http://snomed.info/sct",
              "display": "Unsuccessful"
            }
          ],
          "text": "External cephalic version: Unsuccessful"
        },
        "status": "completed",
        "subject": {
          "reference": "Patient/patient-mother-jada-ann-quinn",
          "display": "Patient - Mother (Jada Ann Quinn)"
        }
      },
      "fullUrl": "http://www.example.org/fhir/Procedure/procedure-obstetric-procedure-jada-ann-quinn"
    },
    {
      "resource": {
        "resourceType": "Condition",
        "id": "condition-chorioamnionitis-jada-ann-quinn",
        "meta": {
          "profile": [
            "http://hl7.org/fhir/us/bfdr/StructureDefinition/Condition-chorioamnionitis"
          ]
        },
        "category": [
          {
            "coding": [
              {
                "code": "problem-list-item",
                "system": "http://terminology.hl7.org/CodeSystem/condition-category"
              }
            ]
          },
          {
            "coding": [
              {
                "code": "73813-8",
                "system": "http://loinc.org"
              }
            ]
          }
        ],
        "clinicalStatus": {
          "coding": [
            {
              "code": "active",
              "system": "http://terminology.hl7.org/CodeSystem/condition-clinical",
              "display": "Active"
            }
          ],
          "text": "Active"
        },
        "code": {
          "coding": [
            {
              "code": "11612004",
              "system": "http://snomed.info/sct",
              "display": "Chorioamnionitis (disorder)"
            }
          ]
        },
        "subject": {
          "reference": "Patient/patient-mother-jada-ann-quinn",
          "display": "Patient - Mother (Jada Ann Quinn)"
        }
      },
      "fullUrl": "http://www.example.org/fhir/Condition/condition-chorioamnionitis-jada-ann-quinn"
    },
    {
      "resource": {
        "resourceType": "Procedure",
        "id": "procedure-induction-of-labor-jada-ann-quinn",
        "meta": {
          "profile": [
            "http://hl7.org/fhir/us/bfdr/StructureDefinition/Procedure-induction-of-labor"
          ]
        },
        "performedPeriod": {
          "start": "2019-02-07T08:30:00-07:00",
          "end": "2019-02-07T08:45:00-07:00"
        },
        "code": {
          "coding": [
            {
              "code": "236958009",
              "system": "http://snomed.info/sct",
              "display": "Induction of labor (procedure)"
            }
          ]
        },
        "status": "completed",
        "subject": {
          "reference": "Patient/patient-mother-jada-ann-quinn",
          "display": "Patient - Mother (Jada Ann Quinn)"
        }
      },
      "fullUrl": "http://www.example.org/fhir/Procedure/procedure-induction-of-labor-jada-ann-quinn"
    },
    {
      "resource": {
        "resourceType": "Observation",
        "id": "observation-fetal-presentation-babyg-quinn",
        "meta": {
          "profile": [
            "http://hl7.org/fhir/us/bfdr/StructureDefinition/Observation-fetal-presentation"
          ]
        },
        "performer": [
          {
            "reference": "Practitioner/practitioner-vital-records-janet-seito"
          }
        ],
        "code": {
          "coding": [
            {
              "code": "73761-9",
              "system": "http://loinc.org"
            }
          ]
        },
        "status": "final",
        "subject": {
          "reference": "Patient/patient-child-babyg-quinn",
          "display": "Patient - Child (Baby G Quinn)"
        },
        "effectiveDateTime": "2019-12-02",
        "valueCodeableConcept": {
          "coding": [
            {
              "code": "6096002",
              "system": "http://snomed.info/sct",
              "display": "Breech presentation (finding)"
            }
          ]
        }
      },
      "fullUrl": "http://www.example.org/fhir/Observation/observation-fetal-presentation-babyg-quinn"
    },
    {
      "resource": {
        "resourceType": "Procedure",
        "id": "procedure-final-route-method-delivery-babyg-quinn",
        "meta": {
          "profile": [
            "http://hl7.org/fhir/us/bfdr/StructureDefinition/Procedure-final-route-method-delivery"
          ]
        },
        "code": {
          "coding": [
            {
              "code": "11466000",
              "system": "http://snomed.info/sct",
              "display": "Cesarean section"
            }
          ],
          "text": "Cesarean section"
        },
        "performedPeriod": {
          "start": "2019-02-12T12:45:00-07:00",
          "end": "2019-02-12T13:15:00-07:00"
        },
        "reasonReference": [
          {
            "reference": "Observation/observation-labor-trial-attempted-babyg-quinn",
            "display": "Labor trial attempted - true"
          }
        ],
        "status": "completed",
        "subject": {
          "reference": "Patient/patient-mother-jada-ann-quinn",
          "display": "Patient - Mother (Jada Ann Quinn)"
        }
      },
      "fullUrl": "http://www.example.org/fhir/Procedure/procedure-final-route-method-delivery-babyg-quinn"
    },
    {
      "resource": {
        "resourceType": "Condition",
        "id": "condition-ruptured-uterus-jada-ann-quinn",
        "meta": {
          "profile": [
            "http://hl7.org/fhir/us/bfdr/StructureDefinition/Condition-ruptured-uterus"
          ]
        },
        "clinicalStatus": {
          "coding": [
            {
              "code": "active",
              "system": "http://terminology.hl7.org/CodeSystem/condition-clinical",
              "display": "Active"
            }
          ],
          "text": "Active"
        },
        "category": [
          {
            "coding": [
              {
                "code": "problem-list-item",
                "system": "http://terminology.hl7.org/CodeSystem/condition-category",
                "display": "Problem List Item"
              }
            ]
          },
          {
            "coding": [
              {
                "code": "73781-7",
                "system": "http://loinc.org"
              }
            ]
          }
        ],
        "code": {
          "coding": [
            {
              "code": "34430009",
              "system": "http://snomed.info/sct",
              "display": "Rupture of uterus (disorder)"
            }
          ],
          "text": "Rupture of uterus (disorder)"
        },
        "subject": {
          "reference": "Patient/patient-mother-jada-ann-quinn",
          "display": "Patient - Mother (Jada Ann Quinn)"
        }
      },
      "fullUrl": "http://www.example.org/fhir/Condition/condition-ruptured-uterus-jada-ann-quinn"
    },
    {
      "resource": {
        "resourceType": "Observation",
        "id": "observation-birth-weight-babyg-quinn-w-edit",
        "meta": {
          "profile": [
            "http://hl7.org/fhir/us/bfdr/StructureDefinition/Observation-birth-weight"
          ]
        },
        "performer": [
          {
            "reference": "Organization/organization-jurisdictional-vital-records-office"
          }
        ],
        "valueQuantity": {
          "extension": [
            {
              "url": "http://hl7.org/fhir/us/vr-common-library/StructureDefinition/BypassEditFlag",
              "valueCodeableConcept": {
                "coding": [
                  {
                    "code": "off",
                    "system": "http://hl7.org/fhir/us/vr-common-library/CodeSystem/CodeSystem-vr-edit-flags",
                    "display": "Off"
                  }
                ]
              }
            }
          ],
          "value": 2500,
          "code": "g",
          "system": "http://unitsofmeasure.org"
        },
        "category": [
          {
            "coding": [
              {
                "code": "vital-signs",
                "system": "http://terminology.hl7.org/CodeSystem/observation-category"
              }
            ]
          }
        ],
        "code": {
          "coding": [
            {
              "code": "8339-4",
              "system": "http://loinc.org",
              "display": "Birth weight Measured"
            }
          ]
        },
        "status": "final",
        "subject": {
          "reference": "Patient/patient-child-babyg-quinn",
          "display": "BabyG Quinn"
        },
        "effectiveDateTime": "2019-12-02"
      },
      "fullUrl": "http://www.example.org/fhir/Observation/observation-birth-weight-babyg-quinn-w-edit"
    },
    {
      "resource": {
        "resourceType": "Observation",
        "id": "observation-gestational-age-at-delivery-babyg-quinn-w-edit",
        "meta": {
          "profile": [
            "http://hl7.org/fhir/us/bfdr/StructureDefinition/Observation-gestational-age-at-delivery"
          ]
        },
        "performer": [
          {
            "reference": "Practitioner/practitioner-vital-records-janet-seito"
          }
        ],
        "valueQuantity": {
          "extension": [
            {
              "url": "http://hl7.org/fhir/us/vr-common-library/StructureDefinition/BypassEditFlag",
              "valueCodeableConcept": {
                "coding": [
                  {
                    "code": "off",
                    "system": "http://hl7.org/fhir/us/vr-common-library/CodeSystem/CodeSystem-vr-edit-flags",
                    "display": "Off"
                  }
                ]
              }
            }
          ],
          "system": "http://unitsofmeasure.org",
          "code": "wk",
          "value": 36
        },
        "code": {
          "coding": [
            {
              "code": "11884-4",
              "system": "http://loinc.org",
              "display": "Gestational age Estimated"
            }
          ]
        },
        "status": "final",
        "subject": {
          "reference": "Patient/patient-child-babyg-quinn",
          "display": "BabyG Quinn"
        },
        "effectiveDateTime": "2019-12-02"
      },
      "fullUrl": "http://www.example.org/fhir/Observation/observation-gestational-age-at-delivery-babyg-quinn-w-edit"
    },
    {
      "resource": {
        "resourceType": "Observation",
        "id": "observation-apgar-score-babyg-quinn-1-min",
        "meta": {
          "profile": [
            "http://hl7.org/fhir/us/bfdr/StructureDefinition/Observation-apgar-score"
          ]
        },
        "code": {
          "coding": [
            {
              "code": "9272-6",
              "system": "http://loinc.org",
              "display": "1 minute Apgar Score"
            }
          ],
          "text": "1 minute Apgar Score"
        },
        "performer": [
          {
            "reference": "Practitioner/practitioner-vital-records-janet-seito"
          }
        ],
        "category": [
          {
            "coding": [
              {
                "system": "http://terminology.hl7.org/CodeSystem/observation-category",
                "code": "survey"
              }
            ]
          }
        ],
        "status": "final",
        "subject": {
          "reference": "Patient/patient-child-babyg-quinn",
          "display": "BabyG Quinn"
        },
        "effectiveDateTime": "2019-12-02",
        "valueInteger": 5
      },
      "fullUrl": "http://www.example.org/fhir/Observation/observation-apgar-score-babyg-quinn-1-min"
    },
    {
      "resource": {
        "resourceType": "Observation",
        "id": "observation-apgar-score-babyg-quinn-5-min",
        "meta": {
          "profile": [
            "http://hl7.org/fhir/us/bfdr/StructureDefinition/Observation-apgar-score"
          ]
        },
        "code": {
          "coding": [
            {
              "code": "9274-2",
              "system": "http://loinc.org",
              "display": "5 minute Apgar Score"
            }
          ],
          "text": "5 minute Apgar Score"
        },
        "performer": [
          {
            "reference": "Practitioner/practitioner-vital-records-janet-seito"
          }
        ],
        "category": [
          {
            "coding": [
              {
                "system": "http://terminology.hl7.org/CodeSystem/observation-category",
                "code": "survey"
              }
            ]
          }
        ],
        "status": "final",
        "subject": {
          "reference": "Patient/patient-child-babyg-quinn",
          "display": "BabyG Quinn"
        },
        "effectiveDateTime": "2019-12-02",
        "valueInteger": 7
      },
      "fullUrl": "http://www.example.org/fhir/Observation/observation-apgar-score-babyg-quinn-5-min"
    },
    {
      "resource": {
        "resourceType": "Observation",
        "id": "observation-number-live-births-this-delivery-jada-ann-quinn",
        "meta": {
          "profile": [
            "http://hl7.org/fhir/us/bfdr/StructureDefinition/Observation-number-live-births-this-delivery"
          ]
        },
        "focus": [
          {
            "reference": "Patient/patient-child-babyg-quinn",
            "display": "BabyG Quinn"
          }
        ],
        "performer": [
          {
            "reference": "Practitioner/practitioner-vital-records-janet-seito"
          }
        ],
        "code": {
          "coding": [
            {
              "code": "73773-4",
              "system": "http://loinc.org",
              "display": "Number of infants in this delivery delivered alive"
            }
          ]
        },
        "status": "final",
        "subject": {
          "reference": "Patient/patient-mother-jada-ann-quinn",
          "display": "Patient - Mother (Jada Ann Quinn)"
        },
        "effectiveDateTime": "2019-12-02",
        "valueInteger": 2
      },
      "fullUrl": "http://www.example.org/fhir/Observation/observation-number-live-births-this-delivery-jada-ann-quinn"
    },
    {
      "resource": {
        "resourceType": "Condition",
        "id": "condition-congenital-anomaly-of-newborn-babyg-quinn",
        "meta": {
          "profile": [
            "http://hl7.org/fhir/us/bfdr/StructureDefinition/Condition-congenital-anomaly-of-newborn"
          ]
        },
        "category": [
          {
            "coding": [
              {
                "code": "problem-list-item",
                "system": "http://terminology.hl7.org/CodeSystem/condition-category",
                "display": "Problem List Item"
              }
            ]
          },
          {
            "coding": [
              {
                "code": "73780-9",
                "system": "http://loinc.org",
                "display": "Congenital anomalies of the newborn [US Standard Certificate of Live Birth]"
              }
            ]
          }
        ],
        "clinicalStatus": {
          "coding": [
            {
              "code": "active",
              "system": "http://terminology.hl7.org/CodeSystem/condition-clinical",
              "display": "Active"
            }
          ],
          "text": "Active"
        },
        "code": {
          "coding": [
            {
              "code": "12770006",
              "system": "http://snomed.info/sct",
              "display": "Cyanotic congenital heart disease (disorder)"
            }
          ],
          "text": "Cyanotic congenital heart disease (disorder)"
        },
        "subject": {
          "reference": "Patient/patient-child-babyg-quinn",
          "display": "BabyG Quinn"
        }
      },
      "fullUrl": "http://www.example.org/fhir/Condition/condition-congenital-anomaly-of-newborn-babyg-quinn"
    },
    {
      "resource": {
        "resourceType": "Condition",
        "id": "condition-congenital-anomaly-of-newborn-babyg-quinn-2",
        "meta": {
          "profile": [
            "http://hl7.org/fhir/us/bfdr/StructureDefinition/Condition-congenital-anomaly-of-newborn"
          ]
        },
        "category": [
          {
            "coding": [
              {
                "code": "problem-list-item",
                "system": "http://terminology.hl7.org/CodeSystem/condition-category",
                "display": "Problem List Item"
              }
            ]
          },
          {
            "coding": [
              {
                "code": "73780-9",
                "system": "http://loinc.org",
                "display": "Congenital anomalies of the newborn [US Standard Certificate of Live Birth]"
              }
            ]
          }
        ],
        "code": {
          "coding": [
            {
              "code": "70156005",
              "system": "http://snomed.info/sct",
              "display": "Anomaly of chromosome pair 21 (disorder)"
            }
          ],
          "text": "Anomaly of chromosome pair 21 (disorder)"
        },
        "clinicalStatus": {
          "coding": [
            {
              "code": "active",
              "system": "http://terminology.hl7.org/CodeSystem/condition-clinical",
              "display": "Active"
            }
          ],
          "text": "Active"
        },
        "evidence": [
          {
            "code": [
              {
                "coding": [
                  {
                    "code": "312948004",
                    "system": "http://snomed.info/sct",
                    "display": "Karyotype determination"
                  }
                ],
                "text": "Karyotype determination pending"
              }
            ]
          }
        ],
        "subject": {
          "reference": "Patient/patient-child-babyg-quinn",
          "display": "Patient - Child (Baby G Quinn)"
        }
      },
      "fullUrl": "http://www.example.org/fhir/Condition/condition-congenital-anomaly-of-newborn-babyg-quinn-2"
    },
    {
      "resource": {
        "resourceType": "Observation",
        "id": "observation-infant-living-babyg-quinn",
        "meta": {
          "profile": [
            "http://hl7.org/fhir/us/bfdr/StructureDefinition/Observation-infant-living"
          ]
        },
        "performer": [
          {
            "reference": "Practitioner/practitioner-vital-records-janet-seito"
          }
        ],
        "code": {
          "coding": [
            {
              "code": "73757-7",
              "system": "http://loinc.org",
              "display": "Infant living at time of report [US Standard Certificate of Live Birth]"
            }
          ]
        },
        "status": "final",
        "subject": {
          "reference": "Patient/patient-child-babyg-quinn",
          "display": "BabyG Quinn"
        },
        "effectiveDateTime": "2019-12-02",
        "valueBoolean": true
      },
      "fullUrl": "http://www.example.org/fhir/Observation/observation-infant-living-babyg-quinn"
    },
    {
      "resource": {
        "resourceType": "Observation",
        "id": "observation-infant-breastfed-at-discharge-babyg-quinn",
        "meta": {
          "profile": [
            "http://hl7.org/fhir/us/bfdr/StructureDefinition/Observation-infant-breastfed-at-discharge"
          ]
        },
        "performer": [
          {
            "reference": "Practitioner/practitioner-vital-records-janet-seito"
          }
        ],
        "code": {
          "coding": [
            {
              "code": "73756-9",
              "system": "http://loinc.org"
            }
          ]
        },
        "status": "final",
        "subject": {
          "reference": "Patient/patient-child-babyg-quinn",
          "display": "BabyG Quinn"
        },
        "effectiveDateTime": "2019-12-02",
        "valueBoolean": true
      },
      "fullUrl": "http://www.example.org/fhir/Observation/observation-infant-breastfed-at-discharge-babyg-quinn"
    },
    {
      "resource": {
        "resourceType": "Observation",
        "id": "observation-mother-married-during-pregnancy-jada-ann-quinn",
        "meta": {
          "profile": [
            "http://hl7.org/fhir/us/bfdr/StructureDefinition/Observation-mother-married-during-pregnancy"
          ]
        },
        "focus": [
          {
            "reference": "Patient/patient-child-babyg-quinn",
            "display": "BabyG Quinn"
          }
        ],
        "performer": [
          {
            "reference": "Patient/patient-mother-carmen-teresa-lee"
          }
        ],
        "code": {
          "coding": [
            {
              "code": "87301-8",
              "system": "http://loinc.org"
            }
          ]
        },
        "status": "final",
        "subject": {
          "reference": "Patient/patient-mother-jada-ann-quinn",
          "display": "Patient - Mother (Jada Ann Quinn)"
        },
        "effectiveDateTime": "2019-12-02",
        "valueCodeableConcept": {
          "coding": [
            {
              "code": "Y",
              "system": "http://terminology.hl7.org/CodeSystem/v2-0136",
              "display": "Yes"
            }
          ]
        }
      },
      "fullUrl": "http://www.example.org/fhir/Observation/observation-mother-married-during-pregnancy-jada-ann-quinn"
    },
    {
      "resource": {
        "resourceType": "Observation",
        "id": "observation-parent-education-level-jada-ann-quinn-w-edit",
        "meta": {
          "profile": [
            "http://hl7.org/fhir/us/vr-common-library/StructureDefinition/Observation-education-level-vr"
          ]
        },
        "focus": [
          {
            "reference": "Patient/patient-mother-jada-ann-quinn"
          }
        ],
        "performer": [
          {
            "reference": "Patient/patient-mother-jada-ann-quinn"
          }
        ],
        "valueCodeableConcept": {
          "extension": [
            {
              "url": "http://hl7.org/fhir/us/vr-common-library/StructureDefinition/BypassEditFlag",
              "valueCodeableConcept": {
                "coding": [
                  {
                    "code": "0",
                    "system": "http://hl7.org/fhir/us/vr-common-library/CodeSystem/CodeSystem-vr-edit-flags",
                    "display": "Edit Passed"
                  }
                ]
              }
            }
          ],
          "coding": [
            {
              "code": "POSTG",
              "system": "http://terminology.hl7.org/CodeSystem/v3-EducationLevel",
              "display": "Doctoral or post graduate education"
            }
          ],
          "text": "Doctoral or post graduate education"
        },
        "status": "final",
        "code": {
          "coding": [
            {
              "code": "57712-2",
              "system": "http://loinc.org",
              "display": "Highest level of education Mother"
            }
          ]
        },
        "subject": {
          "reference": "Patient/patient-child-babyg-quinn"
        },
        "effectiveDateTime": "2019-12-02"
      },
      "fullUrl": "http://www.example.org/fhir/Observation/observation-parent-education-level-jada-ann-quinn-w-edit"
    },
    {
      "resource": {
        "resourceType": "Observation",
        "id": "observation-ssn-requested-for-child-babyg-quinn",
        "meta": {
          "profile": [
            "http://hl7.org/fhir/us/bfdr/StructureDefinition/Observation-ssn-requested-for-child"
          ]
        },
        "focus": [
          {
            "reference": "Patient/patient-mother-jada-ann-quinn",
            "display": "Patient - Mother (Jada Ann Quinn)"
          }
        ],
        "performer": [
          {
            "reference": "Patient/patient-mother-jada-ann-quinn"
          }
        ],
        "code": {
          "coding": [
            {
              "code": "87295-2",
              "system": "http://loinc.org"
            }
          ]
        },
        "status": "final",
        "subject": {
          "reference": "Patient/patient-child-babyg-quinn",
          "display": "BabyG Quinn"
        },
        "effectiveDateTime": "2019-12-02",
        "valueBoolean": true
      },
      "fullUrl": "http://www.example.org/fhir/Observation/observation-ssn-requested-for-child-babyg-quinn"
    },
    {
      "resource": {
        "resourceType": "RelatedPerson",
        "id": "relatedperson-father-natural-james-brandon-quinn-w-edit",
        "meta": {
          "profile": [
            "http://hl7.org/fhir/us/vr-common-library/StructureDefinition/RelatedPerson-father-natural-vr"
          ]
        },
        "extension": [
          {
            "extension": [
              {
                "url": "ombCategory",
                "valueCoding": {
                  "code": "2106-3",
                  "system": "urn:oid:2.16.840.1.113883.6.238",
                  "display": "White"
                }
              },
              {
                "url": "text",
                "valueString": "White"
              }
            ],
            "url": "http://hl7.org/fhir/us/core/StructureDefinition/us-core-race"
          },
          {
            "extension": [
              {
                "url": "ombCategory",
                "valueCoding": {
                  "code": "2186-5",
                  "system": "urn:oid:2.16.840.1.113883.6.238",
                  "display": "Not Hispanic or Latino"
                }
              },
              {
                "url": "text",
                "valueString": "Not Hispanic or Latino"
              }
            ],
            "url": "http://hl7.org/fhir/us/core/StructureDefinition/us-core-ethnicity"
          },
          {
            "valueAddress": {
              "state": "NY"
            },
            "url": "http://hl7.org/fhir/us/vr-common-library/StructureDefinition/Extension-relatedperson-birthplace-vr"
          }
        ],
        "identifier": [
          {
            "type": {
              "coding": [
                {
                  "code": "SS",
                  "system": "http://terminology.hl7.org/CodeSystem/v2-0203"
                }
              ]
            },
            "system": "http://hl7.org/fhir/sid/us-ssn",
            "value": "132225987"
          }
        ],
        "relationship": [
          {
            "coding": [
              {
                "system": "http://terminology.hl7.org/CodeSystem/v3-RoleCode",
                "code": "NFTH",
                "display": "natural father"
              }
            ],
            "text": "Natural Father"
          }
        ],
        "name": [
          {
            "given": [
              "James",
              "Brandon"
            ],
            "use": "official",
            "family": "Quinn"
          }
        ],
        "active": true,
        "patient": {
          "reference": "Patient/patient-child-babyg-quinn"
        },
        "gender": "male",
        "birthDate": "1972-11-24",
        "_birthDate": {
          "extension": [
            {
              "url": "http://hl7.org/fhir/us/vr-common-library/StructureDefinition/BypassEditFlag",
              "valueCodeableConcept": {
                "coding": [
                  {
                    "code": "dataQueried",
                    "system": "http://hl7.org/fhir/us/vr-common-library/CodeSystem/CodeSystem-vr-edit-flags",
                    "display": "Data queried"
                  }
                ]
              }
            }
          ]
        }
      },
      "fullUrl": "http://www.example.org/fhir/RelatedPerson/relatedperson-father-natural-james-brandon-quinn-w-edit"
    },
    {
      "resource": {
        "resourceType": "Observation",
        "id": "observation-paternity-acknowledgement-signed-james-quinn",
        "meta": {
          "profile": [
            "http://hl7.org/fhir/us/bfdr/StructureDefinition/Observation-paternity-acknowledgement-signed"
          ]
        },
        "focus": [
          {
            "reference": "RelatedPerson/relatedperson-father-natural-james-brandon-quinn",
            "display": "RelatedPerson - Father (James Brandon Quinn)"
          }
        ],
        "performer": [
          {
            "reference": "Patient/patient-mother-jada-ann-quinn"
          }
        ],
        "code": {
          "coding": [
            {
              "code": "87302-6",
              "system": "http://loinc.org"
            }
          ]
        },
        "status": "final",
        "subject": {
          "reference": "Patient/patient-child-babyg-quinn",
          "display": "Patient - Child (Baby G Quinn)"
        },
        "effectiveDateTime": "2019-12-02",
        "valueCodeableConcept": {
          "coding": [
            {
              "code": "Y",
              "system": "http://terminology.hl7.org/CodeSystem/v2-0136",
              "display": "Yes"
            }
          ]
        }
      },
      "fullUrl": "http://www.example.org/fhir/Observation/observation-paternity-acknowledgement-signed-james-quinn"
    },
    {
      "resource": {
        "resourceType": "Observation",
        "id": "observation-parent-education-level-james-quinn-w-edit",
        "meta": {
          "profile": [
            "http://hl7.org/fhir/us/vr-common-library/StructureDefinition/Observation-education-level-vr"
          ]
        },
        "focus": [
          {
            "reference": "RelatedPerson/relatedperson-father-natural-james-brandon-quinn"
          }
        ],
        "performer": [
          {
            "reference": "Patient/patient-mother-jada-ann-quinn"
          }
        ],
        "valueCodeableConcept": {
          "extension": [
            {
              "url": "http://hl7.org/fhir/us/vr-common-library/StructureDefinition/BypassEditFlag",
              "valueCodeableConcept": {
                "coding": [
                  {
                    "code": "0",
                    "system": "http://hl7.org/fhir/us/vr-common-library/CodeSystem/CodeSystem-vr-edit-flags",
                    "display": "Edit Passed"
                  }
                ]
              }
            }
          ],
          "coding": [
            {
              "code": "POSTG",
              "system": "http://terminology.hl7.org/CodeSystem/v3-EducationLevel",
              "display": "Doctoral or post graduate education"
            }
          ],
          "text": "Doctoral or post graduate education"
        },
        "status": "final",
        "code": {
          "coding": [
            {
              "code": "87300-0",
              "system": "http://loinc.org",
              "display": "Highest level of education Father"
            }
          ]
        },
        "subject": {
          "reference": "Patient/patient-child-babyg-quinn"
        },
        "effectiveDateTime": "2019-12-02"
      },
      "fullUrl": "http://www.example.org/fhir/Observation/observation-parent-education-level-james-quinn-w-edit"
    },
    {
      "resource": {
        "resourceType": "Practitioner",
        "id": "practitioner-vital-records-avery-jones",
        "meta": {
          "profile": [
            "http://hl7.org/fhir/us/vr-common-library/StructureDefinition/Practitioner-vr"
          ]
        },
        "identifier": [
          {
            "system": "http://hl7.org/fhir/sid/us-npi",
            "value": "76231001"
          }
        ],
        "name": [
          {
            "given": [
              "Avery"
            ],
            "suffix": [
              "D.O."
            ],
            "family": "Jones"
          }
        ],
        "qualification": [
          {
            "code": {
              "coding": [
                {
                  "code": "76231001",
                  "system": "http://snomed.info/sct",
                  "display": "Osteopath (occupation)"
                }
              ]
            }
          }
        ]
      },
      "fullUrl": "http://www.example.org/fhir/Practitioner/practitioner-vital-records-avery-jones"
    },
    {
      "resource": {
        "resourceType": "Location",
        "id": "location-east-hospital",
        "meta": {
          "profile": [
            "http://hl7.org/fhir/us/core/StructureDefinition/us-core-location"
          ]
        },
        "type": [
          {
            "coding": [
              {
                "code": "HOSP",
                "system": "http://terminology.hl7.org/CodeSystem/v3-RoleCode",
                "display": "Hospital"
              }
            ]
          }
        ],
        "status": "active",
        "name": "East Hospital"
      },
      "fullUrl": "http://www.example.org/fhir/Location/location-east-hospital"
    },
    {
      "resource": {
        "resourceType": "Location",
        "id": "location-south-hospital",
        "meta": {
          "profile": [
            "http://hl7.org/fhir/us/core/StructureDefinition/us-core-location"
          ]
        },
        "identifier": [
          {
            "system": "http://hl7.org/fhir/sid/us-npi",
            "value": "116441967701"
          }
        ],
        "type": [
          {
            "coding": [
              {
                "code": "HOSP",
                "system": "http://terminology.hl7.org/CodeSystem/v3-RoleCode",
                "display": "Hospital"
              }
            ]
          }
        ],
        "address": {
          "line": [
            "2100 North Ave"
          ],
          "city": "Salt Lake City",
          "state": "UT",
          "postalCode": "84116",
          "country": "US"
        },
        "status": "active",
        "name": "South Hospital",
        "managingOrganization": {
          "reference": "Organization/organization-south-hospital",
          "display": "Organization - South Hospital"
        }
      },
      "fullUrl": "http://www.example.org/fhir/Location/location-south-hospital"
    },
    {
      "resource": {
        "resourceType": "Location",
        "id": "location-north-hospital",
        "meta": {
          "profile": [
            "http://hl7.org/fhir/us/core/StructureDefinition/us-core-location"
          ]
        },
        "type": [
          {
            "coding": [
              {
                "code": "HOSP",
                "system": "http://terminology.hl7.org/CodeSystem/v3-RoleCode",
                "display": "Hospital"
              }
            ]
          }
        ],
        "status": "active",
        "name": "North Hospital"
      },
      "fullUrl": "http://www.example.org/fhir/Location/location-north-hospital"
    },
    {
      "resource": {
        "resourceType": "Organization",
        "id": "organization-south-hospital",
        "identifier": [
          {
            "system": "http://hl7.org/fhir/sid/us-npi",
            "value": "5555512"
          }
        ],
        "type": [
          {
            "coding": [
              {
                "code": "HOSP",
                "system": "http://terminology.hl7.org/CodeSystem/v3-RoleCode",
                "display": "Hospital"
              }
            ]
          }
        ],
        "telecom": [
          {
            "system": "phone",
            "value": "+1-555-555-1111"
          },
          {
            "system": "email",
            "value": "mail@southhospital.com"
          }
        ],
        "address": [
          {
            "line": [
              "2100 North Ave"
            ],
            "city": "Salt Lake City",
            "state": "UT",
            "postalCode": "84116",
            "country": "US"
          }
        ],
        "active": true,
        "name": "South Hospital"
      },
      "fullUrl": "http://www.example.org/fhir/Organization/organization-south-hospital"
    },
    {
      "resource": {
        "resourceType": "Observation",
        "id": "observation-labor-trial-attempted-babyg-quinn",
        "meta": {
          "profile": [
            "http://hl7.org/fhir/us/bfdr/StructureDefinition/Observation-labor-trial-attempted"
          ]
        },
        "focus": [
          {
            "reference": "Patient/patient-child-babyg-quinn",
            "display": "BabyG Quinn"
          }
        ],
        "performer": [
          {
            "reference": "Practitioner/practitioner-vital-records-janet-seito"
          }
        ],
        "code": {
          "coding": [
            {
              "code": "73760-1",
              "system": "http://loinc.org",
              "display": "If cesarean, a trial of labor was attempted [US Standard Certificate of Live Birth]"
            }
          ]
        },
        "status": "final",
        "subject": {
          "reference": "Patient/patient-mother-jada-ann-quinn",
          "display": "Patient - Mother (Jada Ann Quinn)"
        },
        "effectiveDateTime": "2019-12-02",
        "valueBoolean": true
      },
      "fullUrl": "http://www.example.org/fhir/Observation/observation-labor-trial-attempted-babyg-quinn"
    }
  ],
  "type": "document",
  "timestamp": "2019-02-13T02:06:15.234Z"
}
