<?xml version="1.0" encoding="UTF-8"?><Bundle xmlns="http://hl7.org/fhir"><id value="3564b876-edd9-4c34-ada3-3d63e74cbb85"/><meta><lastUpdated value="2020-08-03T23:28:55.192+00:00"/></meta><type value="searchset"/><total value="62"/><link><relation value="self"/><url value="https://hapi4.lantanagroup.com/fhir/ImplementationGuide?_id=hl7-fhir-us-bfdr&amp;_include=ImplementationGuide%3Aresource&amp;_include=ImplementationGuide%3Aglobal"/></link><entry><fullUrl value="https://hapi4.lantanagroup.com/fhir/ImplementationGuide/hl7-fhir-us-bfdr"/><resource><ImplementationGuide><id value="hl7-fhir-us-bfdr"/><meta><versionId value="278"/><lastUpdated value="2020-08-03T22:20:01.751+00:00"/><source value="#StAlNjidWq2YKJ7h"/><security><system value="https://trifolia-fhir.lantanagroup.com/security"/><code value="everyone^read"/></security><security><system value="https://trifolia-fhir.lantanagroup.com/security"/><code value="everyone^write"/></security></meta><contained><DocumentReference><id value="package-list"/><status value="current"/><type><coding><code value="package-list"/></coding></type><content><attachment><contentType value="application/json"/><data value=""/></attachment></content></DocumentReference></contained><extension url="https://trifolia-fhir.lantanagroup.com/StructureDefinition/extension-ig-package-list"><valueReference><reference value="#package-list"/></valueReference></extension><url value="http://hl7.org/fhir/us/bfdr/ImplementationGuide/hl7-fhir-us-bfdr"/><version value="1.0.0"/><name value="Vital_Records_Birth_and_Fetal_Death_Reporting"/><title value="Vital Records Birth and Fetal Death Reporting"/><status value="draft"/><publisher value="HL7 International - Public Health Work Group"/><contact><name value="HL7 International - Public Health"/><telecom><system value="url"/><value value="http://www.hl7.org/Special/committees/pher"/></telecom></contact><description value="Project Scope: The purpose of this project is to create an HL7 Fast Healthcare Interoperability Resources implementation Guide (FHIR BFDR IG) standard to support the needs of NCHS and its jurisdictions to successfully implement the electronic reporting of birth and fetal death information. The scope of this HL7 FHIR BFDR IG will include the content of medical/health information on live births and fetal deaths for select state and Federal birth and fetal death reporting, as indicated in the 2003 Revision of the U.S. Standard Certificate of Live Birth and the U.S. Standard Report of Fetal Death. Additionally, it will include the content that is exchanged between EHRs, jurisdictions, and NCHS. In the case of fetal death, return coded cause of death, and race and ethnicity information back to the state.&#xA;&#xA;Project Need: To continue support of interoperability among public health systems, there is a need to develop a FHIR IG for birth and fetal death reporting. Development of the FHIR IG for birth and fetal death will provide national data standards that will support the implementation of FHIR for NCHS, Jurisdictional partners and EHR vendors."/><jurisdiction><coding><system value="urn:iso:std:iso:3166"/><code value="US"/></coding></jurisdiction><packageId value="hl7.fhir.us.bfdr"/><fhirVersion value="4.0.1"/><dependsOn><extension url="https://trifolia-fhir.lantanagroup.com/r4/StructureDefinition/extension-ig-depends-on-location"><valueString value="http://hl7.org/fhir/us/core"/></extension><extension url="https://trifolia-fhir.lantanagroup.com/r4/StructureDefinition/extension-ig-depends-on-name"><valueString value="USCoreR4"/></extension><uri value="http://hl7.org/fhir/us/core/ImplementationGuide/hl7.fhir.us.core"/><packageId value="hl7.fhir.us.core"/><version value="3.1.0"/></dependsOn><dependsOn><uri value="http://hl7.org/fhir/us/fhir-vr-common-ig/ImplementationGuide/fhir-vr-common-ig"/><packageId value="hl7.fhir.us.fhir-vr-common-ig"/><version value="current"/></dependsOn><definition><grouping id="participants"><name value="Participants"/></grouping><grouping id="live-birth-compositions-ehr-jvr"><name value="Live Birth - Compositions: EHR to Jurisdictional Vital Records Office"/><description value="Compositions that define the information needed for the data flow from EHR (provider) to Jurisdictional Vital Records Office"/></grouping><grouping id="fetal-death-compositions-ehr-jvr"><name value="Fetal Death - Compositions: EHR to Jurisdictional Vital Records Office"/><description value="Compositions that define the information needed for the data flow from EHR (provider) to Jurisdictional Vital Records Office."/></grouping><grouping id="live-birth"><name value="Live Birth"/><description value="Profiles included in only the live birth data flow."/></grouping><grouping id="fetal-death"><name value="Fetal Death"/><description value="Profiles included in only the fetal death data flow."/></grouping><grouping id="live-birth-fetal-death"><name value="Live Birth &amp; Fetal Death"/><description value="Profiles included in both the live birth and fetal death data flows."/></grouping><grouping id="examples-live-birth-medical-health-information"><name value="Examples - Live Birth: Medical and Health Information"/></grouping><grouping id="examples-live-birth-newborn"><name value="Examples - Live Birth: Newborn"/><description value="Concepts contained in the Live Birth: Newborn section of the U.S. Standard Certificate of Live Birth (rev. 2003)."/></grouping><resource><extension url="https://trifolia-fhir.lantanagroup.com/StructureDefinition/extension-ig-resource-file-path"><valueString value="structuredefinition/Encounter-Birth.xml"/></extension><reference><reference value="StructureDefinition/Encounter-Birth"/><display value="Encounter - Birth"/></reference><name value="Encounter - Birth"/><exampleBoolean value="false"/><groupingId value="live-birth"/></resource><resource><extension url="https://trifolia-fhir.lantanagroup.com/StructureDefinition/extension-ig-resource-file-path"><valueString value="structuredefinition/Encounter-Maternity.xml"/></extension><reference><reference value="StructureDefinition/Encounter-Maternity"/><display value="Encounter - Maternity"/></reference><name value="Encounter - Maternity"/><exampleBoolean value="false"/><groupingId value="live-birth-fetal-death"/></resource><resource><extension url="https://trifolia-fhir.lantanagroup.com/StructureDefinition/extension-ig-resource-file-path"><valueString value="structuredefinition/Observation-ssn-requested-for-child.xml"/></extension><reference><reference value="StructureDefinition/Observation-ssn-requested-for-child"/><display value="Observation - Social Security Number Requested For Child"/></reference><name value="Observation - Social Security Number Requested For Child"/><exampleBoolean value="false"/><groupingId value="live-birth"/></resource><resource><extension url="https://trifolia-fhir.lantanagroup.com/StructureDefinition/extension-ig-resource-file-path"><valueString value="structuredefinition/Observation-planned-to-deliver-at-home.xml"/></extension><reference><reference value="StructureDefinition/Observation-planned-to-deliver-at-home"/><display value="Observation - Planned to Deliver at Home"/></reference><name value="Observation - Planned to Deliver at Home"/><exampleBoolean value="false"/><groupingId value="live-birth-fetal-death"/></resource><resource><extension url="https://trifolia-fhir.lantanagroup.com/StructureDefinition/extension-ig-resource-file-path"><valueString value="structuredefinition/Observation-date-of-first-prenatal-care-visit.xml"/></extension><reference><reference value="StructureDefinition/Observation-date-of-first-prenatal-care-visit"/><display value="Observation - Date of First Prenatal Care Visit"/></reference><name value="Observation - Date of First Prenatal Care Visit"/><exampleBoolean value="false"/><groupingId value="live-birth-fetal-death"/></resource><resource><extension url="https://trifolia-fhir.lantanagroup.com/StructureDefinition/extension-ig-resource-file-path"><valueString value="structuredefinition/Observation-mother-received-wic-food.xml"/></extension><reference><reference value="StructureDefinition/Observation-mother-received-wic-food"/><display value="Observation - Mother Recieved WIC Food"/></reference><name value="Observation - Mother Recieved WIC Food"/><exampleBoolean value="false"/><groupingId value="live-birth-fetal-death"/></resource><resource><extension url="https://trifolia-fhir.lantanagroup.com/StructureDefinition/extension-ig-resource-file-path"><valueString value="valueset/ValueSet-cigarette-smoking-before-during-pregnancy.xml"/></extension><reference><reference value="ValueSet/ValueSet-cigarette-smoking-before-during-pregnancy"/><display value="Cigarette Smoking Before and During Pregnancy"/></reference><name value="Cigarette Smoking Before and During Pregnancy"/><exampleBoolean value="false"/></resource><resource><extension url="https://trifolia-fhir.lantanagroup.com/StructureDefinition/extension-ig-resource-file-path"><valueString value="structuredefinition/Observation-cigarette-smoking-before-during-pregnancy.xml"/></extension><reference><reference value="StructureDefinition/Observation-cigarette-smoking-before-during-pregnancy"/><display value="Observation - Cigarette Smoking Before and During Pregnancy"/></reference><name value="Observation - Cigarette Smoking Before and During Pregnancy"/><exampleBoolean value="false"/><groupingId value="live-birth-fetal-death"/></resource><resource><extension url="https://trifolia-fhir.lantanagroup.com/StructureDefinition/extension-ig-resource-file-path"><valueString value="structuredefinition/Condition-fetal-presentation.xml"/></extension><reference><reference value="StructureDefinition/Condition-fetal-presentation"/><display value="Condition - Fetal Presentation at Birth/Delivery"/></reference><name value="Condition - Fetal Presentation at Birth/Delivery"/><exampleBoolean value="false"/><groupingId value="live-birth-fetal-death"/></resource><resource><extension url="https://trifolia-fhir.lantanagroup.com/StructureDefinition/extension-ig-resource-file-path"><valueString value="structuredefinition/Observation-infant-breastfed-at-discharge.xml"/></extension><reference><reference value="StructureDefinition/Observation-infant-breastfed-at-discharge"/><display value="Observation - Infant Breastfed at Discharge"/></reference><name value="Observation - Infant Breastfed at Discharge"/><exampleBoolean value="false"/><groupingId value="live-birth"/></resource><resource><extension url="https://trifolia-fhir.lantanagroup.com/StructureDefinition/extension-ig-resource-file-path"><valueString value="structuredefinition/Observation-maternal-transfer.xml"/></extension><reference><reference value="StructureDefinition/Observation-maternal-transfer"/><display value="Observation - Maternal Transfer"/></reference><name value="Observation - Maternal Transfer"/><exampleBoolean value="false"/><groupingId value="live-birth-fetal-death"/></resource><resource><extension url="https://trifolia-fhir.lantanagroup.com/StructureDefinition/extension-ig-resource-file-path"><valueString value="structuredefinition/Procedure-obstetric.xml"/></extension><reference><reference value="StructureDefinition/Procedure-obstetric"/><display value="Procedure - Obstetric"/></reference><name value="Procedure - Obstetric"/><exampleBoolean value="false"/><groupingId value="live-birth"/></resource><resource><extension url="https://trifolia-fhir.lantanagroup.com/StructureDefinition/extension-ig-resource-file-path"><valueString value="patient/patient-mother-eve-everywoman.xml"/></extension><reference><reference value="Patient/patient-mother-eve-everywoman"/></reference><name value="Patient - Mother (Eve Everywoman)"/><description value="Example of Patient - Mother profile (Eve Everywoman)"/><exampleBoolean value="true"/></resource><resource><extension url="https://trifolia-fhir.lantanagroup.com/StructureDefinition/extension-ig-resource-file-path"><valueString value="procedure/procedure-external-cephalic-version.xml"/></extension><reference><reference value="Procedure/procedure-external-cephalic-version"/><display value="Procedure - Obstetric Example (External cephalic version: successful)"/></reference><name value="Procedure - Obstetric (External cephalic version)"/><description value="Example of Procedure - Obstetric profile (External cephalic version: successful)"/><exampleCanonical value="http://hl7.org/fhir/us/bfdr/StructureDefinition/Procedure-obstetric"/><groupingId value="examples-live-birth-medical-health-information"/></resource><resource><extension url="https://trifolia-fhir.lantanagroup.com/StructureDefinition/extension-ig-resource-file-path"><valueString value="patient/patient-newborn-baby-everybaby.xml"/></extension><reference><reference value="Patient/patient-newborn-baby-everybaby"/></reference><name value="Patient - Baby (Baby Everybaby)"/><description value="Example of Patient - Newborn profile (Baby Everybaby)"/><exampleBoolean value="true"/></resource><resource><extension url="https://trifolia-fhir.lantanagroup.com/StructureDefinition/extension-ig-resource-file-path"><valueString value="practitioner/practitioner-us-core-henry-seven.xml"/></extension><reference><reference value="Practitioner/practitioner-us-core-henry-seven"/></reference><name value="US Core Practitioner (Henry Seven)"/><description value="Example of US Core Practitioner profile (Henry Seven)"/><exampleBoolean value="true"/></resource><resource><extension url="https://trifolia-fhir.lantanagroup.com/StructureDefinition/extension-ig-resource-file-path"><valueString value="practitionerrole/practitionerrole-henry-seven.xml"/></extension><reference><reference value="PractitionerRole/practitionerrole-henry-seven"/></reference><name value="US Core PractitionerRole (Henry Seven)"/><description value="Example of US Core PractitionerRole profile (Henry Seven)"/><exampleBoolean value="true"/></resource><resource><extension url="https://trifolia-fhir.lantanagroup.com/StructureDefinition/extension-ig-resource-file-path"><valueString value="composition/composition-birth-certificate-baby-everybaby.xml"/></extension><reference><reference value="Composition/composition-birth-certificate-baby-everybaby"/><display value="U.S. standard certificate of live birth - 2003 revision"/></reference><name value="Composition Birth Certificate (U.S. standard certificate of live birth - 2003 revision)"/><description value="Example of Composition Birth Certificate profile (U.S. standard certificate of live birth - 2003 revision)"/><exampleCanonical value="http://hl7.org/fhir/us/bfdr/StructureDefinition/Composition-jurisdiction-live-birth-report"/></resource><resource><extension url="https://trifolia-fhir.lantanagroup.com/StructureDefinition/extension-ig-resource-file-path"><valueString value="encounter/encounter-maternity-eve-everywoman.xml"/></extension><reference><reference value="Encounter/encounter-maternity-eve-everywoman"/></reference><name value="Encounter - Maternity (Eve Everywoman)"/><description value="Example of Encounter - Maternity profile (Eve Everywoman)"/><exampleCanonical value="http://hl7.org/fhir/us/bfdr/StructureDefinition/Encounter-Maternity"/></resource><resource><extension url="https://trifolia-fhir.lantanagroup.com/StructureDefinition/extension-ig-resource-file-path"><valueString value="encounter/encounter-birth-baby-everybaby.xml"/></extension><reference><reference value="Encounter/encounter-birth-baby-everybaby"/></reference><name value="Encounter - Birth (Baby Everybaby)"/><description value="Example of Encounter - Birth profile (Baby Everybaby)"/><exampleCanonical value="http://hl7.org/fhir/us/bfdr/StructureDefinition/Encounter-Birth"/></resource><resource><extension url="https://trifolia-fhir.lantanagroup.com/StructureDefinition/extension-ig-resource-file-path"><valueString value="organization/organization-salem-medical-center.xml"/></extension><reference><reference value="Organization/organization-salem-medical-center"/><display value="Salem Medical Center"/></reference><name value="US Core Organization (Salem Medical Center)"/><description value="Example of US Core Organization profile (Salem Medical Center)"/><exampleBoolean value="true"/></resource><resource><extension url="https://trifolia-fhir.lantanagroup.com/StructureDefinition/extension-ig-resource-file-path"><valueString value="location/location-salem-medical-center.xml"/></extension><reference><reference value="Location/location-salem-medical-center"/><display value="Clinic Bldg A, Salem Medical Center"/></reference><name value="US Core Location (Clinic Bldg A, Salem Medical Center)"/><description value="Example of US Core Location profile (Clinic Bldg A, Salem Medical Center)"/><exampleBoolean value="true"/></resource><resource><extension url="https://trifolia-fhir.lantanagroup.com/StructureDefinition/extension-ig-resource-file-path"><valueString value="condition/condition-fetal-presentation.xml"/></extension><reference><reference value="Condition/condition-fetal-presentation"/></reference><name value="Condition - Fetal Presentation (Vertex presentation (finding))"/><description value="Example of Condition - Fetal Presentation profile (Vertex presentation (finding))"/><exampleCanonical value="http://hl7.org/fhir/us/bfdr/StructureDefinition/Condition-fetal-presentation"/></resource><resource><extension url="https://trifolia-fhir.lantanagroup.com/StructureDefinition/extension-ig-resource-file-path"><valueString value="observation/observation-cigarette-smoking-before-during-pregnancy-1.xml"/></extension><reference><reference value="Observation/observation-cigarette-smoking-before-during-pregnancy-1"/><display value="observation-cigarette-smoking-before-during-pregnancy-1"/></reference><name value="Observation - Cigarette Smoking Before/During Pregnancy (3 months prior)"/><description value="Example of Observation - Cigarette Smoking Before/During Pregnancy profile (Average number of cigarettes smoked per day in the 3 months prior to pregnancy)"/><exampleCanonical value="http://hl7.org/fhir/us/bfdr/StructureDefinition/Observation-cigarette-smoking-before-during-pregnancy"/></resource><resource><extension url="https://trifolia-fhir.lantanagroup.com/StructureDefinition/extension-ig-resource-file-path"><valueString value="observation/observation-cigarette-smoking-before-during-pregnancy-2.xml"/></extension><reference><reference value="Observation/observation-cigarette-smoking-before-during-pregnancy-2"/><display value="observation-cigarette-smoking-before-during-pregnancy-2"/></reference><name value="Observation - Cigarette Smoking Before/During Pregnancy (first 3 month)"/><description value="Example of Observation - Cigarette Smoking Before/During Pregnancy profile (Average number of cigarettes smoked per day in the first 3 months of pregnancy)"/><exampleCanonical value="http://hl7.org/fhir/us/bfdr/StructureDefinition/Observation-cigarette-smoking-before-during-pregnancy"/></resource><resource><extension url="https://trifolia-fhir.lantanagroup.com/StructureDefinition/extension-ig-resource-file-path"><valueString value="observation/observation-cigarette-smoking-before-during-pregnancy-3.xml"/></extension><reference><reference value="Observation/observation-cigarette-smoking-before-during-pregnancy-3"/><display value="observation-cigarette-smoking-before-during-pregnancy-3"/></reference><name value="Observation - Cigarette Smoking Before/During Pregnancy (second 3 months)"/><description value="Example of Observation - Cigarette Smoking Before/During Pregnancy profile (Average number of cigarettes smoked per day in the second 3 months of pregnancy)"/><exampleCanonical value="http://hl7.org/fhir/us/bfdr/StructureDefinition/Observation-cigarette-smoking-before-during-pregnancy"/></resource><resource><extension url="https://trifolia-fhir.lantanagroup.com/StructureDefinition/extension-ig-resource-file-path"><valueString value="observation/observation-cigarette-smoking-before-during-pregnancy-4.xml"/></extension><reference><reference value="Observation/observation-cigarette-smoking-before-during-pregnancy-4"/><display value="observation-cigarette-smoking-before-during-pregnancy-4"/></reference><name value="Observation - Cigarette Smoking Before/During Pregnancy (last 3 months)"/><description value="Example of Observation - Cigarette Smoking Before/During Pregnancy profile (Average number of cigarettes smoked per day in the last 3 months of pregnancy)"/><exampleCanonical value="http://hl7.org/fhir/us/bfdr/StructureDefinition/Observation-cigarette-smoking-before-during-pregnancy"/></resource><resource><extension url="https://trifolia-fhir.lantanagroup.com/StructureDefinition/extension-ig-resource-file-path"><valueString value="observation/observation-date-of-first-prenatal-care-visit-eve-everywoman.xml"/></extension><reference><reference value="Observation/observation-date-of-first-prenatal-care-visit-eve-everywoman"/></reference><name value="Observation - Date of First Prenatal Care Visit"/><description value="Example of Observation - Date of First Prenatal Care Visit profile"/><exampleCanonical value="http://hl7.org/fhir/us/bfdr/StructureDefinition/Observation-date-of-first-prenatal-care-visit"/></resource><resource><extension url="https://trifolia-fhir.lantanagroup.com/StructureDefinition/extension-ig-resource-file-path"><valueString value="observation/observation-infant-breastfed-at-discharge-baby-everybaby.xml"/></extension><reference><reference value="Observation/observation-infant-breastfed-at-discharge-baby-everybaby"/></reference><name value="Observation - Infant Breastfed at Discharge (true)"/><description value="Example of Observation - Infant Breastfed at Discharge profile (true)"/><exampleCanonical value="http://hl7.org/fhir/us/bfdr/StructureDefinition/Observation-infant-breastfed-at-discharge"/><groupingId value="examples-live-birth-newborn"/></resource><resource><extension url="https://trifolia-fhir.lantanagroup.com/StructureDefinition/extension-ig-resource-file-path"><valueString value="location/location-general-city-hospital.xml"/></extension><reference><reference value="Location/location-general-city-hospital"/><display value="General City Hospital"/></reference><name value="US Core Location (General City Hospital)"/><description value="Example of US Core Location profile (General City Hospital) used for the name of facility mother transferred from for maternal or fetal indications for delivery."/><exampleBoolean value="true"/></resource><resource><extension url="https://trifolia-fhir.lantanagroup.com/StructureDefinition/extension-ig-resource-file-path"><valueString value="observation/observation-planned-to-deliver-at-home-baby-everybaby.xml"/></extension><reference><reference value="Observation/observation-planned-to-deliver-at-home-baby-everybaby"/></reference><name value="Observation - Planned to Deliver at Home (false)"/><description value="Example of Observation - Planned to Deliver at Home profile (false)"/><exampleCanonical value="http://hl7.org/fhir/us/bfdr/StructureDefinition/Observation-planned-to-deliver-at-home"/></resource><resource><extension url="https://trifolia-fhir.lantanagroup.com/StructureDefinition/extension-ig-resource-file-path"><valueString value="observation/observation-mother-received-wic-food-baby-everybaby.xml"/></extension><reference><reference value="Observation/observation-mother-received-wic-food-baby-everybaby"/></reference><name value="Observation - Mother Received WIC Food (true)"/><description value="Example of Observation - Mother Received WIC Food profile (true)"/><exampleCanonical value="http://hl7.org/fhir/us/bfdr/StructureDefinition/Observation-mother-received-wic-food"/></resource><resource><extension url="https://trifolia-fhir.lantanagroup.com/StructureDefinition/extension-ig-resource-file-path"><valueString value="observation/observation-ssn-requested-for-child-baby-everybaby.xml"/></extension><reference><reference value="Observation/observation-ssn-requested-for-child-baby-everybaby"/></reference><name value="Observation - SSN Requested for Child (true)"/><description value="Example of Observation - SSN Requested for Child profile (true)"/><exampleCanonical value="http://hl7.org/fhir/us/bfdr/StructureDefinition/Observation-ssn-requested-for-child"/></resource><resource><extension url="https://trifolia-fhir.lantanagroup.com/StructureDefinition/extension-ig-resource-file-path"><valueString value="patient/patient-fetus-fetus-everybaby.xml"/></extension><reference><reference value="Patient/patient-fetus-fetus-everybaby"/></reference><name value="Patient - Fetus (Fetus Everybaby)"/><description value="Example of Patient - Fetus profile (Fetus Everybaby)"/><exampleBoolean value="true"/></resource><resource><extension url="https://trifolia-fhir.lantanagroup.com/StructureDefinition/extension-ig-resource-file-path"><valueString value="relatedperson/relatedperson-father-everyfather.xml"/></extension><reference><reference value="RelatedPerson/relatedperson-father-everyfather"/></reference><name value="RelatedPerson - Father (Father Everyfather)"/><description value="Example of RelatedPerson - Father profile (Father Everyfather)"/><exampleBoolean value="true"/></resource><resource><extension url="https://trifolia-fhir.lantanagroup.com/StructureDefinition/extension-ig-resource-file-path"><valueString value="relatedperson/relatedperson-eve-everywoman.xml"/></extension><reference><reference value="RelatedPerson/relatedperson-eve-everywoman"/></reference><name value="RelatedPerson - Mother (Eve Everywoman)"/><description value="Example of RelatedPerson - Mother profile (Eve Everywoman)"/><exampleBoolean value="true"/></resource><resource><extension url="https://trifolia-fhir.lantanagroup.com/StructureDefinition/extension-ig-resource-file-path"><valueString value="structuredefinition/Condition-infection-present-during-pregnancy.xml"/></extension><reference><reference value="StructureDefinition/Condition-infection-present-during-pregnancy"/><display value="ConditionInfectionPresentDuringPregnancy"/></reference><name value="Condition - Infection Present During Pregnancy"/><exampleBoolean value="false"/><groupingId value="live-birth"/></resource><resource><extension url="https://trifolia-fhir.lantanagroup.com/StructureDefinition/extension-ig-resource-file-path"><valueString value="condition/condition-infection-present-during-pregnancy-eve-everywoman.xml"/></extension><reference><reference value="Condition/condition-infection-present-during-pregnancy-eve-everywoman"/></reference><name value="Condition - Infection Present During Pregnancy (Viral hepatitis type B)"/><description value="Example of Condition - Infection Present During Pregnancy profile (Viral hepatitis type B)"/><exampleCanonical value="http://hl7.org/fhir/us/bfdr/StructureDefinition/Condition-infection-present-during-pregnancy"/><groupingId value="examples-live-birth-medical-health-information"/></resource><resource><extension url="https://trifolia-fhir.lantanagroup.com/StructureDefinition/extension-ig-resource-file-path"><valueString value="structuredefinition/Observation-characteristic-of-labor-and-delivery.xml"/></extension><reference><reference value="StructureDefinition/Observation-characteristic-of-labor-and-delivery"/><display value="Observation-characteristic-of-labor-and-delivery"/></reference><name value="Observation - Characteristic of Labor and Delivery"/><exampleBoolean value="false"/><groupingId value="live-birth"/></resource><resource><extension url="https://trifolia-fhir.lantanagroup.com/StructureDefinition/extension-ig-resource-file-path"><valueString value="condition/condition-congenital-anomaly-of-newborn-baby-everybaby.xml"/></extension><reference><reference value="Condition/condition-congenital-anomaly-of-newborn-baby-everybaby"/></reference><name value="Condition - Congenital Anomaly of Newborn (Anomaly of chromosome pair 21)"/><description value="Example: Condition - Congenital Anomaly of Newborn (Anomaly of chromosome pair 21)"/><exampleCanonical value="http://hl7.org/fhir/us/bfdr/StructureDefinition/Condition-congenital-anomaly-of-newborn"/><groupingId value="examples-live-birth-newborn"/></resource><resource><extension url="https://trifolia-fhir.lantanagroup.com/StructureDefinition/extension-ig-resource-file-path"><valueString value="structuredefinition/Condition-congenital-anomaly-of-newborn.xml"/></extension><reference><reference value="StructureDefinition/Condition-congenital-anomaly-of-newborn"/><display value="ConditionCongenitalAnomalyOfNewborn"/></reference><name value="Condition - Congenital Anomaly of Newborn"/><exampleBoolean value="false"/><groupingId value="live-birth"/></resource><resource><extension url="https://trifolia-fhir.lantanagroup.com/StructureDefinition/extension-ig-resource-file-path"><valueString value="observation/observation-characteristic-of-labor-and-delivery-baby-everybaby.xml"/></extension><reference><reference value="Observation/observation-characteristic-of-labor-and-delivery-baby-everybaby"/></reference><name value="Observation - Characteristic of Labor and Delivery (Augmentation of labor)"/><description value="Example of Observation - Characteristic of Labor and Delivery profile (Augmentation of labor)"/><exampleCanonical value="http://hl7.org/fhir/us/bfdr/StructureDefinition/Observation-characteristic-of-labor-and-delivery"/><groupingId value="examples-live-birth-medical-health-information"/></resource><resource><extension url="https://trifolia-fhir.lantanagroup.com/StructureDefinition/extension-ig-resource-file-path"><valueString value="structuredefinition/Condition-abnormal-condition-of-newborn.xml"/></extension><reference><reference value="StructureDefinition/Condition-abnormal-condition-of-newborn"/><display value="Condition - Abnormal Condition of Newborn"/></reference><name value="Condition - Abnormal Condition of Newborn"/><exampleBoolean value="false"/><groupingId value="live-birth"/></resource><resource><extension url="https://trifolia-fhir.lantanagroup.com/StructureDefinition/extension-ig-resource-file-path"><valueString value="condition/condition-abnormal-condition-of-newborn-baby-everybaby.xml"/></extension><reference><reference value="Condition/condition-abnormal-condition-of-newborn-baby-everybaby"/></reference><name value="Condition - Abnormal Condition of Newborn (Seizure)"/><description value="Example of Condition - Abnormal Condition of Newborn profile (Seizure)"/><exampleCanonical value="http://hl7.org/fhir/us/bfdr/StructureDefinition/Condition-abnormal-condition-of-newborn"/><groupingId value="examples-live-birth-newborn"/></resource><resource><extension url="https://trifolia-fhir.lantanagroup.com/StructureDefinition/extension-ig-resource-file-path"><valueString value="structuredefinition/Procedure-final-route-method-delivery.xml"/></extension><reference><reference value="StructureDefinition/Procedure-final-route-method-delivery"/><display value="Procedure - Final Route and Method of Delivery"/></reference><name value="Procedure - Final Route and Method of Delivery"/><exampleBoolean value="false"/><groupingId value="live-birth-fetal-death"/></resource><resource><extension url="https://trifolia-fhir.lantanagroup.com/StructureDefinition/extension-ig-resource-file-path"><valueString value="structuredefinition/Observation-labor-trial-attempted.xml"/></extension><reference><reference value="StructureDefinition/Observation-labor-trial-attempted"/><display value="Observation - Labor Trial Attempted"/></reference><name value="Observation - Labor Trial Attempted"/><exampleBoolean value="false"/><groupingId value="live-birth-fetal-death"/></resource><resource><extension url="https://trifolia-fhir.lantanagroup.com/StructureDefinition/extension-ig-resource-file-path"><valueString value="observation/observation-labor-trial-attempted-baby-everybaby.xml"/></extension><reference><reference value="Observation/observation-labor-trial-attempted-baby-everybaby"/></reference><name value="Observation - Labor Trial Attempted (true)"/><description value="Example of Observation - Labor Trial Attempted profile (true)"/><exampleCanonical value="http://hl7.org/fhir/us/bfdr/StructureDefinition/Observation-labor-trial-attempted"/><groupingId value="examples-live-birth-medical-health-information"/></resource><resource><extension url="https://trifolia-fhir.lantanagroup.com/StructureDefinition/extension-ig-resource-file-path"><valueString value="procedure/procedure-final-route-method-delivery-cesarean.xml"/></extension><reference><reference value="Procedure/procedure-final-route-method-delivery-cesarean"/></reference><name value="Procedure - Final Route and Method of Delivery (Cesarean section)"/><description value="Example of Procedure - Final Route and Method of Delivery profile (Cesarean section)"/><exampleCanonical value="http://hl7.org/fhir/us/bfdr/StructureDefinition/Procedure-final-route-method-delivery"/><groupingId value="examples-live-birth-medical-health-information"/></resource><resource><extension url="https://trifolia-fhir.lantanagroup.com/StructureDefinition/extension-ig-resource-file-path"><valueString value="structuredefinition/Condition-maternal-morbidity.xml"/></extension><reference><reference value="StructureDefinition/Condition-maternal-morbidity"/><display value="Condition - Maternal Morbidity"/></reference><name value="Condition - Maternal Morbidity"/><exampleBoolean value="false"/><groupingId value="live-birth-fetal-death"/></resource><resource><extension url="https://trifolia-fhir.lantanagroup.com/StructureDefinition/extension-ig-resource-file-path"><valueString value="structuredefinition/Extension-relatedperson-mother.xml"/></extension><reference><reference value="StructureDefinition/Extension-relatedperson-mother"/><display value="Extension-relatedperson-mother"/></reference><name value="Extension - RelatedPerson Mother"/><exampleBoolean value="false"/><groupingId value="live-birth-fetal-death"/></resource><resource><reference><reference value="StructureDefinition/Extension-relatedperson-father"/><display value="Extension - RelatedPerson Father"/></reference><name value="Extension - RelatedPerson Father"/><exampleBoolean value="false"/></resource><resource><extension url="https://trifolia-fhir.lantanagroup.com/StructureDefinition/extension-ig-resource-file-path"><valueString value="structuredefinition/Composition-jurisdiction-live-birth-report.xml"/></extension><reference><reference value="StructureDefinition/Composition-jurisdiction-live-birth-report"/><display value="Jurisdiction Live Birth Report"/></reference><name value="Composition - Jurisdiction Live Birth Report"/><exampleBoolean value="false"/><groupingId value="live-birth"/></resource><resource><extension url="https://trifolia-fhir.lantanagroup.com/StructureDefinition/extension-ig-resource-file-path"><valueString value="structuredefinition/Composition-jurisdiction-fetal-death-report.xml"/></extension><reference><reference value="StructureDefinition/Composition-jurisdiction-fetal-death-report"/><display value="Jurisdiction Fetal Death Report"/></reference><name value="Composition - Jurisdiction Fetal Death Report"/><exampleBoolean value="false"/><groupingId value="fetal-death"/></resource><resource><extension url="https://trifolia-fhir.lantanagroup.com/StructureDefinition/extension-ig-resource-file-path"><valueString value="structuredefinition/Composition-provider-fetal-death-report.xml"/></extension><reference><reference value="StructureDefinition/Composition-provider-fetal-death-report"/><display value="Provider Fetal Death Report"/></reference><name value="Composition - Provider Fetal Death Report"/><exampleBoolean value="false"/><groupingId value="fetal-death-compositions-ehr-jvr"/></resource><resource><extension url="https://trifolia-fhir.lantanagroup.com/StructureDefinition/extension-ig-resource-file-path"><valueString value="structuredefinition/Composition-provider-live-birth-report.xml"/></extension><reference><reference value="StructureDefinition/Composition-provider-live-birth-report"/><display value="Provider Live Birth Report"/></reference><name value="Composition - Provider Live Birth Report"/><exampleBoolean value="false"/><groupingId value="live-birth-compositions-ehr-jvr"/></resource><resource><extension url="https://trifolia-fhir.lantanagroup.com/StructureDefinition/extension-ig-resource-file-path"><valueString value="structuredefinition/Composition-provider-mothers-live-birth-report.xml"/></extension><reference><reference value="StructureDefinition/Composition-provider-mothers-live-birth-report"/><display value="Composition - Provider Supplied Mother's Live Birth Report"/></reference><name value="Composition - Provider Supplied Mother's Live Birth Report"/><exampleBoolean value="false"/><groupingId value="live-birth-compositions-ehr-jvr"/></resource><resource><extension url="https://trifolia-fhir.lantanagroup.com/StructureDefinition/extension-ig-resource-file-path"><valueString value="structuredefinition/Composition-provider-facility-live-birth-report.xml"/></extension><reference><reference value="StructureDefinition/Composition-provider-facility-live-birth-report"/><display value="Composition - Provider Supplied Facility Live Birth Facility Report"/></reference><name value="Composition - Provider Supplied Facility Live Birth Report"/><exampleBoolean value="false"/><groupingId value="live-birth-compositions-ehr-jvr"/></resource><resource><extension url="https://trifolia-fhir.lantanagroup.com/StructureDefinition/extension-ig-resource-file-path"><valueString value="structuredefinition/Composition-provider-mothers-fetal-death-report.xml"/></extension><reference><reference value="StructureDefinition/Composition-provider-mothers-fetal-death-report"/><display value="Composition - Provider Supplied Mother's Fetal Death Report"/></reference><name value="Composition - Provider Supplied Mother's Fetal Death Report"/><exampleBoolean value="false"/><groupingId value="fetal-death-compositions-ehr-jvr"/></resource><resource><extension url="https://trifolia-fhir.lantanagroup.com/StructureDefinition/extension-ig-resource-file-path"><valueString value="structuredefinition/Composition-provider-facility-fetal-death-report.xml"/></extension><reference><reference value="StructureDefinition/Composition-provider-facility-fetal-death-report"/><display value="Composition - Provider Supplied Facility Fetal Death Report"/></reference><name value="Composition - Provider Supplied Facility Fetal Death Report"/><exampleBoolean value="false"/><groupingId value="fetal-death-compositions-ehr-jvr"/></resource><resource><extension url="https://trifolia-fhir.lantanagroup.com/StructureDefinition/extension-ig-resource-file-path"><valueString value="patient/patient-newborn-unknown-name.xml"/></extension><reference><reference value="Patient/patient-newborn-unknown-name"/></reference><name value="Patient - Newborn (Unknown Name)"/><description value="Example of Patient - Newborn profile (Unknown Name)"/><exampleBoolean value="true"/></resource><resource><reference><reference value="StructureDefinition/Patient-Mother"/><display value="Patient - Mother"/></reference><name value="Patient - Mother"/><exampleBoolean value="false"/></resource><page><extension url="https://trifolia-fhir.lantanagroup.com/StructureDefinition/extension-ig-page-filename"><valueUri value="index.md"/></extension><extension url="https://trifolia-fhir.lantanagroup.com/StructureDefinition/extension-ig-page-reuse-description"><valueBoolean value="true"/></extension><nameUrl value="index.html"/><title value="Home Page"/><generation value="markdown"/><page><extension url="https://trifolia-fhir.lantanagroup.com/StructureDefinition/extension-ig-page-filename"><valueUri value="use_cases.md"/></extension><extension url="https://trifolia-on-fhir.lantanagroup.com/StructureDefinition/extension-ig-page-content"><valueMarkdown value="| Title	| Data source	| Data receiver	| Form(s) | &#xA;| -------- | -------- | -------- | -------- |&#xA;| Composition - Provider Supplied Live Birth Report	| EHR 	| Jurisdictional Vital Records Office	| birth11-03final-ACC.pdf | &#xA;| Composition - Provider Supplied Mother's Live Birth Report	| (EHR)	Jurisdictional Vital Records Office	 | | &#xA;| Composition - Provider Supplied Facility Live Birth Report | (EHR)	Jurisdictional Vital Records Office	 | | &#xA;| Composition - Provider Supplied Fetal Death Report	| EHR 	| Jurisdictional Vital Records Office	| FDEATH11-03finalACC.pdf | &#xA;| Composition - Provider Supplied Mother's Fetal Death Report	| (EHR)	| Jurisdictional Vital Records Office	 | | &#xA;| Composition - Provider Supplied Facility Fetal Death Report	| (EHR)	| Jurisdictional Vital Records Office	 | | &#xA;| Composition - Jurisdiction Live Birth Report	| Jurisdictional Vital Records Office	| National Statistical Agency	 | | &#xA;| Composition - Jurisdiction Fetal Death Report	| Jurisdictional Vital Records Office	| National Statistical Agency	 | |  &#xA;| Void Certificate Report	| Jurisdictional Vital Records Office	| National Statistical Agency	 | | &#xA;| Coded Race and Ethnicity | Report	National Statistical Agency	| Jurisdictional Vital Records Office	 | | &#xA; | Coded Cause of Fetal Death Report	| National Statistical Agency	| Jurisdictional Vital Records Office | | &#xA;&#xA;&#xA;&#xA;"/></extension><nameUrl value="use_cases.html"/><title value="Use Cases"/><generation value="markdown"/><page><extension url="https://trifolia-fhir.lantanagroup.com/StructureDefinition/extension-ig-page-filename"><valueUri value="provider_supplied_facility_live_birth_report.md"/></extension><extension url="https://trifolia-fhir.lantanagroup.com/StructureDefinition/extension-ig-page-nav-menu"><valueString value="Connectathon"/></extension><extension url="https://trifolia-on-fhir.lantanagroup.com/StructureDefinition/extension-ig-page-content"><valueMarkdown value="The Provider Supplied Facility Live Birth report is represented by the [Composition - Provider Supplied Facility Live Birth Report](StructureDefinition-Composition-provider-facility-live-birth-report.html).&#xA;&#xA;This [Google Sheet](https://docs.google.com/spreadsheets/d/1bG1EkFnyHZGIdSNJe62R59dF6KXUf8kLUVVJtUlhvbo/edit?usp=sharing) contains facility worksheet items noting priority (SHALL, SHOULD, MAY), data sources, and mappings to FHIR profiles.&#xA;&#xA;"/></extension><nameUrl value="provider_supplied_facility_live_birth_report.html"/><title value="Provider Supplied Facility Live Birth Report"/><generation value="markdown"/></page><page><extension url="https://trifolia-fhir.lantanagroup.com/StructureDefinition/extension-ig-page-filename"><valueUri value="provider_supplied_facility_fetal_death_report.md"/></extension><extension url="https://trifolia-fhir.lantanagroup.com/StructureDefinition/extension-ig-page-nav-menu"><valueString value="Connectathon"/></extension><nameUrl value="provider_supplied_facility_fetal_death_report.html"/><title value="Provider Supplied Facility Fetal Death Report"/><generation value="markdown"/></page></page></page><parameter><code value="releaselabel"/><value value="CI build"/></parameter><parameter><code value="copyrightyear"/><value value="2020+"/></parameter></definition></ImplementationGuide></resource><search><mode value="match"/></search></entry><entry><fullUrl value="https://hapi4.lantanagroup.com/fhir/Location/location-salem-medical-center"/><resource><Location><id value="location-salem-medical-center"/><meta><versionId value="2"/><lastUpdated value="2020-07-10T05:25:29.632+00:00"/><source value="#4IIW335JjFVUaNgz"/><profile value="http://hl7.org/fhir/us/core/StructureDefinition/us-core-location"/><security><system value="https://trifolia-fhir.lantanagroup.com/security"/><code value="everyone^read"/></security><security><system value="https://trifolia-fhir.lantanagroup.com/security"/><code value="everyone^write"/></security></meta><status value="active"/><name value="Clinic Bldg A, Salem Medical Center"/><type><coding><system value="http://terminology.hl7.org/CodeSystem/v3-RoleCode"/><code value="HOSP"/><display value="Hospital"/></coding></type><telecom><system value="phone"/><value value="(+1) (555)555-3001"/></telecom><telecom><system value="fax"/><value value="(+1) (555)555-3002"/></telecom><telecom><system value="email"/><value value="mail@smc.org"/></telecom><address><line value="Clinic Bldg A"/><line value="4444 Healthcare Drive"/><city value="Ann Arbor"/><state value="MI"/><postalCode value="99999"/></address><managingOrganization><reference value="Organization/organization-salem-medical-center"/></managingOrganization></Location></resource><search><mode value="include"/></search></entry><entry><fullUrl value="https://hapi4.lantanagroup.com/fhir/Condition/condition-abnormal-condition-of-newborn-baby-everybaby"/><resource><Condition><id value="condition-abnormal-condition-of-newborn-baby-everybaby"/><meta><versionId value="2"/><lastUpdated value="2020-08-03T22:17:40.414+00:00"/><source value="#GR1PRUfHlckSbGRU"/><profile value="http://hl7.org/fhir/us/bfdr/StructureDefinition/Condition-abnormal-condition-of-newborn"/><security><system value="https://trifolia-fhir.lantanagroup.com/security"/><code value="everyone^read"/></security><security><system value="https://trifolia-fhir.lantanagroup.com/security"/><code value="everyone^write"/></security></meta><category><coding><system value="http://loinc.org"/><code value="73812-0"/><display value="Abnormal conditions of the newborn [US Standard Certificate of Live Birth]"/></coding></category><code><coding><system value="http://snomed.info/sct"/><code value="91175000"/><display value="Seizure (finding)"/></coding><text value="Seizure (finding)"/></code><subject><reference value="Patient/patient-newborn-baby-everybaby"/><display value="Baby Everybaby"/></subject></Condition></resource><search><mode value="include"/></search></entry><entry><fullUrl value="https://hapi4.lantanagroup.com/fhir/Condition/condition-fetal-presentation"/><resource><Condition><id value="condition-fetal-presentation"/><meta><versionId value="1"/><lastUpdated value="2020-07-11T00:21:03.425+00:00"/><source value="#J3uq1Zu5Q0vsGu3S"/><profile value="http://hl7.org/fhir/us/bfdr/StructureDefinition/Condition-fetal-presentation"/><security><system value="https://trifolia-fhir.lantanagroup.com/security"/><code value="everyone^read"/></security><security><system value="https://trifolia-fhir.lantanagroup.com/security"/><code value="everyone^write"/></security></meta><category><coding><system value="http://terminology.hl7.org/CodeSystem/condition-category"/><code value="encounter-diagnosis"/><display value="Encounter Diagnosis"/></coding></category><code><coding><system value="http://snomed.info/sct"/><code value="70028003"/><display value="Vertex presentation (finding)"/></coding></code><subject><reference value="Patient/patient-mother-eve-everywoman"/><display value="Eve Everywoman"/></subject><asserter><reference value="PractitionerRole/practitionerrole-henry-seven"/><display value="Henry Seven, MD"/></asserter></Condition></resource><search><mode value="include"/></search></entry><entry><fullUrl value="https://hapi4.lantanagroup.com/fhir/Practitioner/practitioner-us-core-henry-seven"/><resource><Practitioner><id value="practitioner-us-core-henry-seven"/><meta><versionId value="2"/><lastUpdated value="2020-07-10T04:15:40.596+00:00"/><source value="#S7xJLvpdX6xQjpiw"/><profile value="http://hl7.org/fhir/us/core/StructureDefinition/us-core-practitioner"/><security><system value="https://trifolia-fhir.lantanagroup.com/security"/><code value="everyone^read"/></security><security><system value="https://trifolia-fhir.lantanagroup.com/security"/><code value="everyone^write"/></security></meta><identifier><system value="http://hl7.org/fhir/sid/us-npi"/><value value="9941339108"/></identifier><name><family value="Henry"/><given value="Seven"/><suffix value="M.D."/></name><telecom><system value="email"/><value value="henry.seven@example.com"/></telecom><address><line value="BMass Doctors"/><line value="2100 North Ave"/><city value="Burlington"/><state value="MA"/><postalCode value="02368"/><country value="US"/></address></Practitioner></resource><search><mode value="include"/></search></entry><entry><fullUrl value="https://hapi4.lantanagroup.com/fhir/Observation/observation-planned-to-deliver-at-home-baby-everybaby"/><resource><Observation><id value="observation-planned-to-deliver-at-home-baby-everybaby"/><meta><versionId value="2"/><lastUpdated value="2020-07-12T01:23:53.259+00:00"/><source value="#GCm5PJJysa5Rkr8v"/><profile value="http://hl7.org/fhir/us/bfdr/StructureDefinition/Observation-planned-to-deliver-at-home"/><security><system value="https://trifolia-fhir.lantanagroup.com/security"/><code value="everyone^read"/></security><security><system value="https://trifolia-fhir.lantanagroup.com/security"/><code value="everyone^write"/></security></meta><status value="final"/><code><coding><system value="http://loinc.org"/><code value="73765-0"/><display value="Mother Planned to deliver at home [US Standard Certificate of Live Birth]"/></coding><text value="Planned to deliver at home?"/></code><subject><reference value="Patient/patient-newborn-baby-everybaby"/><display value="Baby Everybaby"/></subject><focus><reference value="Patient/patient-mother-eve-everywoman"/><display value="Eve Everywoman"/></focus><issued value="2020-06-09T10:02:00-07:00"/><valueBoolean value="false"/></Observation></resource><search><mode value="include"/></search></entry><entry><fullUrl value="https://hapi4.lantanagroup.com/fhir/StructureDefinition/Procedure-obstetric"/><resource><StructureDefinition><id value="Procedure-obstetric"/><meta><versionId value="4"/><lastUpdated value="2020-07-12T02:17:23.788+00:00"/><source value="#yPU0L3r7EwXfoKH4"/><security><system value="https://trifolia-fhir.lantanagroup.com/security"/><code value="everyone^read"/></security><security><system value="https://trifolia-fhir.lantanagroup.com/security"/><code value="everyone^write"/></security></meta><extension url="https://trifolia-fhir.lantanagroup.com/StructureDefinition/extension-sd-intro"><valueMarkdown value="This concept is mapped to:&#xA;* Item **43. Obstetric Procedures** in the *[U.S. Standard Certificate of Live Birth (rev. 2003)](https://www.cdc.gov/nchs/data/dvs/birth11-03final-ACC.pdf)*"/></extension><url value="http://hl7.org/fhir/us/bfdr/StructureDefinition/Procedure-obstetric"/><version value="1.0"/><name value="ProcedureObstetric"/><title value="Procedure - Obstetric"/><status value="draft"/><experimental value="false"/><date value="2020-06-30"/><publisher value="HL7 Public Health Work Group"/><description value="This profile represents information about a particular medical treatment or invasive/manipulative procedure that was performed during this pregnancy specifically in the treatment of the pregnancy, management of labor and/or delivery."/><jurisdiction><coding><system value="urn:iso:std:iso:3166"/><code value="US"/><display value="United States of America"/></coding></jurisdiction><fhirVersion value="4.0.1"/><kind value="resource"/><abstract value="false"/><type value="Procedure"/><baseDefinition value="http://hl7.org/fhir/us/core/StructureDefinition/us-core-procedure"/><derivation value="constraint"/><differential><element id="Procedure"><path value="Procedure"/></element><element id="Procedure.code"><path value="Procedure.code"/><binding><strength value="extensible"/><valueSet value="https://phinvads.cdc.gov/vads/ViewValueSet.action?oid=2.16.840.1.114222.4.11.7136"/></binding></element><element id="Procedure.outcome"><path value="Procedure.outcome"/><short value="Outcome, if procedure was performed."/><mustSupport value="true"/><binding><strength value="extensible"/><valueSet value="http://hl7.org/fhir/ValueSet/procedure-outcome"/></binding></element></differential></StructureDefinition></resource><search><mode value="include"/></search></entry><entry><fullUrl value="https://hapi4.lantanagroup.com/fhir/Observation/observation-mother-received-wic-food-baby-everybaby"/><resource><Observation><id value="observation-mother-received-wic-food-baby-everybaby"/><meta><versionId value="1"/><lastUpdated value="2020-07-12T00:39:57.596+00:00"/><source value="#EoJxxflDbmAQe7YE"/><profile value="http://hl7.org/fhir/us/bfdr/StructureDefinition/Observation-mother-received-wic-food"/><security><system value="https://trifolia-fhir.lantanagroup.com/security"/><code value="everyone^read"/></security><security><system value="https://trifolia-fhir.lantanagroup.com/security"/><code value="everyone^write"/></security></meta><status value="final"/><code><coding><system value="http://loinc.org"/><code value="87303-4"/><display value="Mother WIC food recipient"/></coding><text value="Did mother get WIC food for herself during this pregnancy?"/></code><subject><reference value="Patient/patient-newborn-baby-everybaby"/><display value="Baby Everybaby"/></subject><focus><reference value="Patient/patient-mother-eve-everywoman"/><display value="Eve Everywoman"/></focus><issued value="2020-06-09T10:01:00-07:00"/><valueBoolean value="true"/></Observation></resource><search><mode value="include"/></search></entry><entry><fullUrl value="https://hapi4.lantanagroup.com/fhir/Condition/condition-congenital-anomaly-of-newborn-baby-everybaby"/><resource><Condition><id value="condition-congenital-anomaly-of-newborn-baby-everybaby"/><meta><versionId value="3"/><lastUpdated value="2020-07-12T04:45:51.955+00:00"/><source value="#pU6VEnzc3YnKe0Eq"/><profile value="http://hl7.org/fhir/us/bfdr/StructureDefinition/Condition-congenital-anomaly-of-newborn"/><security><system value="https://trifolia-fhir.lantanagroup.com/security"/><code value="everyone^read"/></security><security><system value="https://trifolia-fhir.lantanagroup.com/security"/><code value="everyone^write"/></security></meta><category><coding><system value="http://loinc.org"/><code value="73780-9"/><display value="Congenital anomalies of the newborn [US Standard Certificate of Live Birth]"/></coding></category><code><coding><system value="http://snomed.info/sct"/><code value="70156005"/><display value="Anomaly of chromosome pair 21 (disorder)"/></coding><text value="Anomaly of chromosome pair 21 (disorder)"/></code><subject><reference value="Patient/patient-newborn-baby-everybaby"/><display value="Baby Everybaby"/></subject><evidence><code><coding><system value="http://snomed.info/sct"/><code value="442124003"/><display value="Karyotype evaluation abnormal (finding)"/></coding></code></evidence></Condition></resource><search><mode value="include"/></search></entry><entry><fullUrl value="https://hapi4.lantanagroup.com/fhir/StructureDefinition/Condition-congenital-anomaly-of-newborn"/><resource><StructureDefinition><id value="Condition-congenital-anomaly-of-newborn"/><meta><versionId value="4"/><lastUpdated value="2020-08-03T22:12:29.771+00:00"/><source value="#pm1bcXpkkThVurAF"/><security><system value="https://trifolia-fhir.lantanagroup.com/security"/><code value="everyone^read"/></security><security><system value="https://trifolia-fhir.lantanagroup.com/security"/><code value="everyone^write"/></security></meta><url value="http://hl7.org/fhir/us/bfdr/StructureDefinition/Condition-congenital-anomaly-of-newborn"/><version value="1.0.0"/><name value="ConditionCongenitalAnomalyOfNewborn"/><title value="Condition - Congenital Anomaly of Newborn"/><status value="active"/><experimental value="false"/><publisher value="HL7 Public Health Work Group"/><description value="This Condition profile represents information on whether the infant suffered from one or more of a list of known malformations diagnosed prenatally or after delivery."/><jurisdiction><coding><system value="urn:iso:std:iso:3166"/><code value="US"/><display value="United States of America"/></coding></jurisdiction><fhirVersion value="4.0.1"/><kind value="resource"/><abstract value="false"/><type value="Condition"/><baseDefinition value="http://hl7.org/fhir/us/core/StructureDefinition/us-core-condition"/><derivation value="constraint"/><differential><element id="Condition"><path value="Condition"/><short value="Information on whether the infant suffered from one or more of a list of known malformations diagnosed prenatally or after delivery."/></element><element id="Condition.code"><path value="Condition.code"/><short value="Malformations of the newborn diagnosed prenatally or after delivery"/><binding><strength value="extensible"/><valueSet value="https://phinvads.cdc.gov/vads/ViewValueSet.action?oid=2.16.840.1.114222.4.11.7122"/></binding></element><element id="Condition.subject"><path value="Condition.subject"/><type><code value="Reference"/><targetProfile value="http://hl7.org/fhir/us/fhir-vr-common-ig/StructureDefinition/Patient-child"/></type></element><element id="Condition.evidence"><path value="Condition.evidence"/><slicing><discriminator><type value="value"/><path value="code"/></discriminator><rules value="open"/></slicing><mustSupport value="true"/></element><element id="Condition.evidence:sliceDownSyndromeKaryotypeStatus"><path value="Condition.evidence"/><sliceName value="sliceDownSyndromeKaryotypeStatus"/><max value="1"/><mustSupport value="true"/></element><element id="Condition.evidence:sliceDownSyndromeKaryotypeStatus.code"><path value="Condition.evidence.code"/><min value="1"/><max value="1"/><binding><strength value="required"/><valueSet value="https://phinvads.cdc.gov/vads/ViewValueSet.action?oid=2.16.840.1.114222.4.11.7116"/></binding></element><element id="Condition.evidence:sliceSuspectedChromosomalDisorderStatus"><path value="Condition.evidence"/><sliceName value="sliceSuspectedChromosomalDisorderStatus"/><max value="1"/><mustSupport value="true"/></element><element id="Condition.evidence:sliceSuspectedChromosomalDisorderStatus.code"><path value="Condition.evidence.code"/><binding><strength value="required"/><valueSet value="https://phinvads.cdc.gov/vads/ViewValueSet.action?oid=2.16.840.1.114222.4.11.7115"/></binding></element></differential></StructureDefinition></resource><search><mode value="include"/></search></entry><entry><fullUrl value="https://hapi4.lantanagroup.com/fhir/Patient/patient-mother-eve-everywoman"/><resource><Patient><id value="patient-mother-eve-everywoman"/><meta><versionId value="3"/><lastUpdated value="2020-08-03T22:20:01.521+00:00"/><source value="#j8Z090nFWmolPUsE"/><profile value="http://hl7.org/fhir/us/fhir-vr-common-ig/StructureDefinition/Patient-Mother"/><security><system value="https://trifolia-fhir.lantanagroup.com/security"/><code value="everyone^read"/></security><security><system value="https://trifolia-fhir.lantanagroup.com/security"/><code value="everyone^write"/></security></meta><text><status value="generated"/><div xmlns="http://www.w3.org/1999/xhtml"><div class="hapiHeaderText">Eve L 
                <b>EVERYWOMAN </b></div><table class="hapiPropertyTable"><tbody><tr><td>Identifier</td><td>1032702</td></tr><tr><td>Address</td><td><span>5101 Peachtree St NE </span><br/><span>Atlanta </span><span>GA </span><span>US </span></td></tr><tr><td>Date of birth</td><td><span>24 November 1974</span></td></tr></tbody></table></div></text><extension url="http://hl7.org/fhir/us/core/StructureDefinition/us-core-race"><extension url="ombCategory"><valueCoding><system value="urn:oid:2.16.840.1.113883.6.238"/><code value="2106-3"/><display value="White"/></valueCoding></extension><extension url="text"><valueString value="White"/></extension></extension><extension url="http://hl7.org/fhir/us/core/StructureDefinition/us-core-ethnicity"><extension url="ombCategory"><valueCoding><system value="urn:oid:2.16.840.1.113883.6.238"/><code value="2186-5"/><display value="Not Hispanic or Latino"/></valueCoding></extension><extension url="text"><valueString value="Not Hispanic or Latino"/></extension></extension><extension url="http://hl7.org/fhir/us/core/StructureDefinition/us-core-birthsex"><valueCode value="F"/></extension><identifier><use value="usual"/><type><coding><system value="http://terminology.hl7.org/CodeSystem/v2-0203"/><code value="MR"/><display value="Medical Record Number"/></coding></type><system value="http://hospital.smarthealthit.org"/><value value="1032702"/></identifier><active value="true"/><name><use value="official"/><family value="Everywoman"/><given value="Eve"/><given value="L"/></name><telecom><system value="phone"/><value value="1-(404)555-1212"/><use value="home"/></telecom><telecom><system value="email"/><value value="eve.everywoman@example.com"/></telecom><gender value="female"/><birthDate value="1974-11-24"/><address><line value="5101 Peachtree St NE"/><city value="Atlanta"/><state value="GA"/><postalCode value="30302"/><country value="US"/></address></Patient></resource><search><mode value="include"/></search></entry><entry><fullUrl value="https://hapi4.lantanagroup.com/fhir/Procedure/procedure-external-cephalic-version"/><resource><Procedure><id value="procedure-external-cephalic-version"/><meta><versionId value="2"/><lastUpdated value="2020-07-11T00:21:03.359+00:00"/><source value="#YG6u6b6QrAlY5AMW"/><profile value="http://hl7.org/fhir/us/bfdr/StructureDefinition/Procedure-obstetric"/><security><system value="https://trifolia-fhir.lantanagroup.com/security"/><code value="everyone^read"/></security><security><system value="https://trifolia-fhir.lantanagroup.com/security"/><code value="everyone^write"/></security></meta><status value="completed"/><code><coding><system value="http://snomed.info/sct"/><code value="240278000"/><display value="External cephalic version (procedure)"/></coding><text value="External cephalic version: Successful"/></code><subject><reference value="Patient/patient-mother-eve-everywoman"/><display value="Eve Everywoman"/></subject><performedPeriod><start value="2020-06-07T08:30:00-07:00"/><end value="2020-06-07T08:45:00-07:00"/></performedPeriod><outcome><coding><system value="http://snomed.info/sct"/><code value="385669000"/><display value="Successful"/></coding><text value="External cephalic version: Successful"/></outcome></Procedure></resource><search><mode value="include"/></search></entry><entry><fullUrl value="https://hapi4.lantanagroup.com/fhir/Observation/observation-ssn-requested-for-child-baby-everybaby"/><resource><Observation><id value="observation-ssn-requested-for-child-baby-everybaby"/><meta><versionId value="1"/><lastUpdated value="2020-07-12T00:45:20.088+00:00"/><source value="#S6mM1vcgFwK6uzNX"/><profile value="http://hl7.org/fhir/us/bfdr/StructureDefinition/Observation-ssn-requested-for-child"/><security><system value="https://trifolia-fhir.lantanagroup.com/security"/><code value="everyone^read"/></security><security><system value="https://trifolia-fhir.lantanagroup.com/security"/><code value="everyone^write"/></security></meta><status value="final"/><code><coding><system value="http://loinc.org"/><code value="87295-2"/><display value="Social Security Number was requested"/></coding><text value="Social security number requested for child"/></code><subject><reference value="Patient/patient-newborn-baby-everybaby"/><display value="Baby Everybaby"/></subject><focus><reference value="Patient/patient-mother-eve-everywoman"/><display value="Eve Everywoman"/></focus><issued value="2020-06-09T10:05:00-07:00"/><valueBoolean value="true"/></Observation></resource><search><mode value="include"/></search></entry><entry><fullUrl value="https://hapi4.lantanagroup.com/fhir/StructureDefinition/Extension-relatedperson-father"/><resource><StructureDefinition><id value="Extension-relatedperson-father"/><meta><versionId value="1"/><lastUpdated value="2020-07-20T08:22:44.295+00:00"/><source value="#QgiXKpoLSAPPdF1t"/><security><system value="https://trifolia-fhir.lantanagroup.com/security"/><code value="everyone^read"/></security><security><system value="https://trifolia-fhir.lantanagroup.com/security"/><code value="everyone^write"/></security></meta><url value="http://hl7.org/fhir/us/bfdr/StructureDefinition/Extension-relatedperson-father"/><name value="ExtensionRelatedPersonFather"/><title value="Extension - RelatedPerson Father"/><status value="active"/><experimental value="false"/><publisher value="HL7 Public Health Work Group"/><jurisdiction><coding><system value="urn:iso:std:iso:3166"/><code value="US"/><display value="United States of America"/></coding></jurisdiction><fhirVersion value="4.0.1"/><kind value="complex-type"/><abstract value="false"/><context><type value="element"/><expression value="Composition"/></context><type value="Extension"/><baseDefinition value="http://hl7.org/fhir/StructureDefinition/Extension"/><derivation value="constraint"/><differential><element id="Extension"><path value="Extension"/></element><element id="Extension.url"><path value="Extension.url"/><fixedUri value="http://hl7.org/fhir/us/bfdr/StructureDefinition/Extension-relatedperson-father"/></element><element id="Extension.value[x]:valueReference"><path value="Extension.valueReference"/><sliceName value="valueReference"/><type><code value="Reference"/><targetProfile value="http://hl7.org/fhir/StructureDefinition/RelatedPerson"/></type></element></differential></StructureDefinition></resource><search><mode value="include"/></search></entry><entry><fullUrl value="https://hapi4.lantanagroup.com/fhir/StructureDefinition/Composition-jurisdiction-live-birth-report"/><resource><StructureDefinition><id value="Composition-jurisdiction-live-birth-report"/><meta><versionId value="5"/><lastUpdated value="2020-08-03T22:12:29.813+00:00"/><source value="#hNWdFR2ztJ61wpoT"/><security><system value="https://trifolia-fhir.lantanagroup.com/security"/><code value="everyone^read"/></security><security><system value="https://trifolia-fhir.lantanagroup.com/security"/><code value="everyone^write"/></security></meta><url value="http://hl7.org/fhir/us/bfdr/StructureDefinition/Composition-jurisdiction-live-birth-report"/><version value="1.0.0"/><name value="CompositionJurisdictionLiveBirthReport"/><title value="Composition - Jurisdiction Live Birth Report"/><status value="active"/><experimental value="false"/><publisher value="HL7 Public Health Work Group"/><description value="This Composition profile contains information of a live birth and the issuance of a Birth Certificate to be recorded and communicated to NCHS.&#xA;&#xA;The data requirements for jurisdictional reporting of live births are based on the Birth Edit Specifications for the 2003 Proposed Revision of the U.S. Standard Certificate of Birth."/><jurisdiction><coding><system value="urn:iso:std:iso:3166"/><code value="US"/><display value="United States of America"/></coding></jurisdiction><fhirVersion value="4.0.1"/><kind value="resource"/><abstract value="false"/><type value="Composition"/><baseDefinition value="http://hl7.org/fhir/StructureDefinition/Composition"/><derivation value="constraint"/><differential><element id="Composition"><path value="Composition"/></element><element id="Composition.subject"><path value="Composition.subject"/><min value="1"/><type><code value="Reference"/><targetProfile value="http://hl7.org/fhir/us/fhir-vr-common-ig/StructureDefinition/Patient-child"/></type></element><element id="Composition.encounter"><path value="Composition.encounter"/><type><code value="Reference"/><targetProfile value="http://hl7.org/fhir/us/bfdr/StructureDefinition/Encounter-Birth"/></type><mustSupport value="true"/></element><element id="Composition.section"><path value="Composition.section"/><slicing><discriminator><type value="value"/><path value="code"/></discriminator><rules value="open"/></slicing></element><element id="Composition.section:slice2191"><path value="Composition.section"/><sliceName value="slice2191"/></element></differential></StructureDefinition></resource><search><mode value="include"/></search></entry><entry><fullUrl value="https://hapi4.lantanagroup.com/fhir/StructureDefinition/Composition-jurisdiction-fetal-death-report"/><resource><StructureDefinition><id value="Composition-jurisdiction-fetal-death-report"/><meta><versionId value="5"/><lastUpdated value="2020-08-03T22:22:22.550+00:00"/><source value="#xmcrJK7cGYoVLym0"/><security><system value="https://trifolia-fhir.lantanagroup.com/security"/><code value="everyone^read"/></security><security><system value="https://trifolia-fhir.lantanagroup.com/security"/><code value="everyone^write"/></security></meta><url value="http://hl7.org/fhir/us/bfdr/StructureDefinition/Composition-jurisdiction-fetal-death-report"/><version value="1.0.0"/><name value="CompositionJurisdictionFetalDeathReport"/><title value="Composition - Jurisdiction Fetal Death Report"/><status value="active"/><experimental value="false"/><publisher value="HL7 Public Health Work Group"/><description value="This Composition profile contains information of a fetal death and the creation of a jurisdictional file to be recorded and communicated to NCHS.&#xA;&#xA;The data requirements for jurisdictional reporting of fetal deaths are based on the Fetal Death Edit Specifications for the 2003 Revision of the U.S. Standard Report of Fetal Death."/><jurisdiction><coding><system value="urn:iso:std:iso:3166"/><code value="US"/><display value="United States of America"/></coding></jurisdiction><fhirVersion value="4.0.1"/><kind value="resource"/><abstract value="false"/><type value="Composition"/><baseDefinition value="http://hl7.org/fhir/StructureDefinition/Composition"/><derivation value="constraint"/><differential><element id="Composition"><path value="Composition"/></element><element id="Composition.subject"><path value="Composition.subject"/><min value="1"/><type><code value="Reference"/><targetProfile value="http://hl7.org/fhir/us/fhir-vr-common-ig/StructureDefinition/Patient-decedant-fetus"/></type></element><element id="Composition.encounter"><path value="Composition.encounter"/><type><code value="Reference"/><targetProfile value="http://hl7.org/fhir/us/bfdr/StructureDefinition/Encounter-Maternity"/></type><mustSupport value="true"/></element><element id="Composition.section"><path value="Composition.section"/><slicing><discriminator><type value="value"/><path value="code"/></discriminator><rules value="open"/></slicing></element><element id="Composition.section:slice2191"><path value="Composition.section"/><sliceName value="slice2191"/></element></differential></StructureDefinition></resource><search><mode value="include"/></search></entry><entry><fullUrl value="https://hapi4.lantanagroup.com/fhir/StructureDefinition/Observation-characteristic-of-labor-and-delivery"/><resource><StructureDefinition><id value="Observation-characteristic-of-labor-and-delivery"/><meta><versionId value="3"/><lastUpdated value="2020-07-30T06:41:30.810+00:00"/><source value="#J597hA1wj5upU6VJ"/><security><system value="https://trifolia-fhir.lantanagroup.com/security"/><code value="everyone^read"/></security><security><system value="https://trifolia-fhir.lantanagroup.com/security"/><code value="everyone^write"/></security></meta><extension url="https://trifolia-fhir.lantanagroup.com/StructureDefinition/extension-sd-intro"><valueMarkdown value="This concept is mapped to:&#xA;* Item **45. Characteristics of labor and delivery** in the *[U.S. Standard Certificate of Live Birth (rev. 2003)](https://www.cdc.gov/nchs/data/dvs/birth11-03final-ACC.pdf)*&#xA;&#xA;***Reason for not basing on US Core - no suitable Observation profile.***"/></extension><url value="http://hl7.org/fhir/us/bfdr/StructureDefinition/Observation-characteristic-of-labor-and-delivery"/><version value="1.0.0"/><name value="ObservationCharacteristicOfLaborAndDelivery"/><title value="Observation - Characteristic of Labor and Delivery"/><status value="active"/><experimental value="false"/><publisher value="HL7 Public Health Work Group"/><description value="This Observation profile represents any of a set of defined characteristics of labor and delivery."/><jurisdiction><coding><system value="urn:iso:std:iso:3166"/><code value="US"/><display value="United States of America"/></coding></jurisdiction><fhirVersion value="4.0.1"/><kind value="resource"/><abstract value="false"/><type value="Observation"/><baseDefinition value="http://hl7.org/fhir/StructureDefinition/Observation"/><derivation value="constraint"/><differential><element id="Observation"><path value="Observation"/></element><element id="Observation.code"><path value="Observation.code"/><short value="Characteristics of labor and delivery [US Standard Certificate of Live Birth]"/><min value="1"/><max value="1"/><patternCodeableConcept><coding><system value="http://loinc.org"/><code value="73813-8"/></coding></patternCodeableConcept><mustSupport value="true"/></element><element id="Observation.value[x]"><path value="Observation.value[x]"/><short value="Labor and Delivery Characteristics (NCHS)"/><min value="1"/><max value="1"/><type><code value="CodeableConcept"/></type><binding><strength value="extensible"/><valueSet value="https://phinvads.cdc.gov/vads/ViewValueSet.action?oid=2.16.840.1.114222.4.11.7117"/></binding></element></differential></StructureDefinition></resource><search><mode value="include"/></search></entry><entry><fullUrl value="https://hapi4.lantanagroup.com/fhir/Observation/observation-cigarette-smoking-before-during-pregnancy-3"/><resource><Observation><id value="observation-cigarette-smoking-before-during-pregnancy-3"/><meta><versionId value="2"/><lastUpdated value="2020-07-11T01:39:10.116+00:00"/><source value="#8BIOwASVpn8WXIOk"/><profile value="http://hl7.org/fhir/us/bfdr/StructureDefinition/Observation-cigarette-smoking-before-during-pregnancy"/><security><system value="https://trifolia-fhir.lantanagroup.com/security"/><code value="everyone^read"/></security><security><system value="https://trifolia-fhir.lantanagroup.com/security"/><code value="everyone^write"/></security></meta><status value="final"/><code><coding><system value="http://loinc.org"/><code value="87299-4"/><display value="Cigarettes smoked per day by Mother--2nd trimester"/></coding><text value="Cigarettes smoked per day by Mother--2nd trimester"/></code><subject><reference value="Patient/patient-newborn-baby-everybaby"/><display value="Baby Everybaby"/></subject><focus><reference value="Patient/patient-mother-eve-everywoman"/><display value="Eve Everywoman"/></focus><issued value="2020-06-09T14:34:20-07:00"/><valueInteger value="15"/></Observation></resource><search><mode value="include"/></search></entry><entry><fullUrl value="https://hapi4.lantanagroup.com/fhir/Observation/observation-cigarette-smoking-before-during-pregnancy-2"/><resource><Observation><id value="observation-cigarette-smoking-before-during-pregnancy-2"/><meta><versionId value="2"/><lastUpdated value="2020-07-11T01:39:10.143+00:00"/><source value="#MgZM8sNVUVIwF3oX"/><profile value="http://hl7.org/fhir/us/bfdr/StructureDefinition/Observation-cigarette-smoking-before-during-pregnancy"/><security><system value="https://trifolia-fhir.lantanagroup.com/security"/><code value="everyone^read"/></security><security><system value="https://trifolia-fhir.lantanagroup.com/security"/><code value="everyone^write"/></security></meta><status value="final"/><code><coding><system value="http://loinc.org"/><code value="87298-6"/><display value="Cigarettes smoked per day by Mother--1st trimester"/></coding><text value="Cigarettes smoked per day by Mother--1st trimester"/></code><subject><reference value="Patient/patient-newborn-baby-everybaby"/><display value="Baby Everybaby"/></subject><focus><reference value="Patient/patient-mother-eve-everywoman"/><display value="Eve Everywoman"/></focus><issued value="2020-06-09T14:34:00-07:00"/><valueInteger value="25"/></Observation></resource><search><mode value="include"/></search></entry><entry><fullUrl value="https://hapi4.lantanagroup.com/fhir/StructureDefinition/Composition-provider-fetal-death-report"/><resource><StructureDefinition><id value="Composition-provider-fetal-death-report"/><meta><versionId value="5"/><lastUpdated value="2020-08-03T22:22:22.636+00:00"/><source value="#r0ftojrXdG3NHZcJ"/><security><system value="https://trifolia-fhir.lantanagroup.com/security"/><code value="everyone^read"/></security><security><system value="https://trifolia-fhir.lantanagroup.com/security"/><code value="everyone^write"/></security></meta><url value="http://hl7.org/fhir/us/bfdr/StructureDefinition/Composition-provider-fetal-death-report"/><version value="1.0.0"/><name value="CompositionProviderFetalDeathReport"/><title value="Composition - Provider Fetal Death Report"/><status value="active"/><experimental value="false"/><publisher value="HL7 Public Health Work Group"/><description value="This Composition profile contains constraints to address the use case describing the need for fetal death information to be recorded and communicated to the jurisdictional Vital Records Office."/><jurisdiction><coding><system value="urn:iso:std:iso:3166"/><code value="US"/><display value="United States of America"/></coding></jurisdiction><fhirVersion value="4.0.1"/><kind value="resource"/><abstract value="false"/><type value="Composition"/><baseDefinition value="http://hl7.org/fhir/StructureDefinition/Composition"/><derivation value="constraint"/><differential><element id="Composition"><path value="Composition"/></element><element id="Composition.subject"><path value="Composition.subject"/><min value="1"/><type><code value="Reference"/><targetProfile value="http://hl7.org/fhir/us/fhir-vr-common-ig/StructureDefinition/Patient-decedant-fetus"/></type></element><element id="Composition.encounter"><path value="Composition.encounter"/><type><code value="Reference"/><targetProfile value="http://hl7.org/fhir/us/bfdr/StructureDefinition/Encounter-Maternity"/></type><mustSupport value="true"/></element><element id="Composition.section"><path value="Composition.section"/><slicing><discriminator><type value="value"/><path value="code"/></discriminator><rules value="open"/></slicing></element><element id="Composition.section:slice2191"><path value="Composition.section"/><sliceName value="slice2191"/></element></differential></StructureDefinition></resource><search><mode value="include"/></search></entry><entry><fullUrl value="https://hapi4.lantanagroup.com/fhir/Observation/observation-cigarette-smoking-before-during-pregnancy-4"/><resource><Observation><id value="observation-cigarette-smoking-before-during-pregnancy-4"/><meta><versionId value="2"/><lastUpdated value="2020-07-11T01:39:10.116+00:00"/><source value="#7dvJlwve83GKP5bo"/><profile value="http://hl7.org/fhir/us/bfdr/StructureDefinition/Observation-cigarette-smoking-before-during-pregnancy"/><security><system value="https://trifolia-fhir.lantanagroup.com/security"/><code value="everyone^read"/></security><security><system value="https://trifolia-fhir.lantanagroup.com/security"/><code value="everyone^write"/></security></meta><status value="final"/><code><coding><system value="http://loinc.org"/><code value="64795-8"/><display value="In the last 3 months of your pregnancy, how many cigarettes did you smoke on an average day [PhenX]"/></coding><text value="In the last 3 months of your pregnancy, how many cigarettes did you smoke on an average day [PhenX]"/></code><subject><reference value="Patient/patient-newborn-baby-everybaby"/><display value="Baby Everybaby"/></subject><focus><reference value="Patient/patient-mother-eve-everywoman"/><display value="Eve Everywoman"/></focus><issued value="2020-06-09T14:34:30-07:00"/><valueInteger value="0"/></Observation></resource><search><mode value="include"/></search></entry><entry><fullUrl value="https://hapi4.lantanagroup.com/fhir/Observation/observation-cigarette-smoking-before-during-pregnancy-1"/><resource><Observation><id value="observation-cigarette-smoking-before-during-pregnancy-1"/><meta><versionId value="2"/><lastUpdated value="2020-07-11T01:39:10.138+00:00"/><source value="#5RLg3Q0a1LgFhDlW"/><profile value="http://hl7.org/fhir/us/bfdr/StructureDefinition/Observation-cigarette-smoking-before-during-pregnancy"/><security><system value="https://trifolia-fhir.lantanagroup.com/security"/><code value="everyone^read"/></security><security><system value="https://trifolia-fhir.lantanagroup.com/security"/><code value="everyone^write"/></security></meta><status value="final"/><code><coding><system value="http://loinc.org"/><code value="64794-1"/><display value="In the 3 months before you got pregnant, how many cigarettes did you smoke on an average day [PhenX]"/></coding><text value="In the 3 months before you got pregnant, how many cigarettes did you smoke on an average day [PhenX]"/></code><subject><reference value="Patient/patient-newborn-baby-everybaby"/><display value="Baby Everybaby"/></subject><focus><reference value="Patient/patient-mother-eve-everywoman"/><display value="Eve Everywoman"/></focus><issued value="2020-06-09T14:34:25-07:00"/><valueInteger value="0"/></Observation></resource><search><mode value="include"/></search></entry><entry><fullUrl value="https://hapi4.lantanagroup.com/fhir/Patient/patient-fetus-fetus-everybaby"/><resource><Patient><id value="patient-fetus-fetus-everybaby"/><meta><versionId value="3"/><lastUpdated value="2020-08-03T22:22:22.637+00:00"/><source value="#bBVfErtn57jd5Sjb"/><profile value="http://hl7.org/fhir/us/fhir-vr-common-ig/StructureDefinition/Patient-decedant-fetus"/><security><system value="https://trifolia-fhir.lantanagroup.com/security"/><code value="everyone^read"/></security><security><system value="https://trifolia-fhir.lantanagroup.com/security"/><code value="everyone^write"/></security></meta><text><status value="generated"/><div xmlns="http://www.w3.org/1999/xhtml"><div class="hapiHeaderText">Fetus F 
                
                <b>EVERYBABY </b></div><table class="hapiPropertyTable"><tbody/></table></div></text><extension url="http://hl7.org/fhir/us/core/StructureDefinition/us-core-birthsex"><valueCode value="F"/></extension><active value="true"/><name><family value="Everybaby"/><given value="Fetus"/><given value="F"/></name><deceasedBoolean value="true"/></Patient></resource><search><mode value="include"/></search></entry><entry><fullUrl value="https://hapi4.lantanagroup.com/fhir/Observation/observation-characteristic-of-labor-and-delivery-baby-everybaby"/><resource><Observation><id value="observation-characteristic-of-labor-and-delivery-baby-everybaby"/><meta><versionId value="1"/><lastUpdated value="2020-07-12T04:58:52.028+00:00"/><source value="#7ocSbw7r45cx5Vsu"/><profile value="http://hl7.org/fhir/us/bfdr/StructureDefinition/Observation-characteristic-of-labor-and-delivery"/><security><system value="https://trifolia-fhir.lantanagroup.com/security"/><code value="everyone^read"/></security><security><system value="https://trifolia-fhir.lantanagroup.com/security"/><code value="everyone^write"/></security></meta><status value="final"/><code><coding><system value="http://loinc.org"/><code value="73813-8"/><display value="Characteristics of labor and delivery [US Standard Certificate of Live Birth]"/></coding><text value="Characteristics of labor and delivery"/></code><subject><reference value="Patient/patient-newborn-baby-everybaby"/><display value="Baby Everybaby"/></subject><focus><reference value="Patient/patient-mother-eve-everywoman"/><display value="Eve Everywoman"/></focus><issued value="2020-06-09T14:34:30-07:00"/><valueCodeableConcept><coding><system value="http://snomed.info/sct"/><code value="237001001"/><display value="Augmentation of labor"/></coding><text value="Augmentation of labor"/></valueCodeableConcept></Observation></resource><search><mode value="include"/></search></entry><entry><fullUrl value="https://hapi4.lantanagroup.com/fhir/StructureDefinition/Composition-provider-live-birth-report"/><resource><StructureDefinition><id value="Composition-provider-live-birth-report"/><meta><versionId value="22"/><lastUpdated value="2020-08-03T22:20:01.516+00:00"/><source value="#gjj6pzIMmK1cuYoU"/><security><system value="https://trifolia-fhir.lantanagroup.com/security"/><code value="everyone^read"/></security><security><system value="https://trifolia-fhir.lantanagroup.com/security"/><code value="everyone^write"/></security></meta><url value="http://hl7.org/fhir/us/bfdr/StructureDefinition/Composition-provider-live-birth-report"/><version value="1.0.0"/><name value="CompositionProviderLiveBirthReport"/><title value="Composition - Provider Live Birth Report"/><status value="active"/><experimental value="false"/><publisher value="HL7 Public Health Work Group"/><description value="This Composition profile defines constraints to address the use case in which information for live birth information to be recorded and communicated to the jurisdicational Vital Records Office.&#xA;&#xA;&#xA;"/><jurisdiction><coding><system value="urn:iso:std:iso:3166"/><code value="US"/><display value="United States of America"/></coding></jurisdiction><fhirVersion value="4.0.1"/><kind value="resource"/><abstract value="false"/><type value="Composition"/><baseDefinition value="http://hl7.org/fhir/StructureDefinition/Composition"/><derivation value="constraint"/><differential><element id="Composition"><path value="Composition"/></element><element id="Composition.extension"><path value="Composition.extension"/><slicing><discriminator><type value="value"/><path value="url"/></discriminator><rules value="open"/></slicing></element><element id="Composition.extension:extensionRelatedPersonMother"><path value="Composition.extension"/><sliceName value="extensionRelatedPersonMother"/><type><code value="Extension"/><profile value="http://hl7.org/fhir/us/bfdr/StructureDefinition/Extension-relatedperson-mother"/></type></element><element id="Composition.extension:extensionRelatedPersonFather"><path value="Composition.extension"/><sliceName value="extensionRelatedPersonFather"/><type><code value="Extension"/><profile value="http://hl7.org/fhir/us/bfdr/StructureDefinition/Extension-relatedperson-father"/></type></element><element id="Composition.subject"><path value="Composition.subject"/><min value="1"/><type><code value="Reference"/><targetProfile value="http://hl7.org/fhir/us/fhir-vr-common-ig/StructureDefinition/Patient-child"/></type></element><element id="Composition.encounter"><path value="Composition.encounter"/><type><code value="Reference"/><targetProfile value="http://hl7.org/fhir/us/bfdr/StructureDefinition/Encounter-Birth"/></type><mustSupport value="true"/></element><element id="Composition.section"><path value="Composition.section"/><slicing><discriminator><type value="value"/><path value="code"/></discriminator><rules value="open"/></slicing></element><element id="Composition.section:slicePregnancy"><path value="Composition.section"/><sliceName value="slicePregnancy"/></element><element id="Composition.section:slicePregnancy.focus"><path value="Composition.section.focus"/><type><code value="Reference"/><targetProfile value="http://hl7.org/fhir/us/fhir-vr-common-ig/StructureDefinition/Patient-Mother"/></type></element><element id="Composition.section:slicePregnancy.entry"><path value="Composition.section.entry"/><slicing><discriminator><type value="value"/><path value="url"/></discriminator><rules value="open"/></slicing></element><element id="Composition.section:slicePregnancy.entry:sliceFirstPrenatalCareVisit"><path value="Composition.section.entry"/><sliceName value="sliceFirstPrenatalCareVisit"/><max value="1"/><type><code value="Reference"/><targetProfile value="http://hl7.org/fhir/us/bfdr/StructureDefinition/Observation-date-of-first-prenatal-care-visit"/></type><mustSupport value="true"/></element><element id="Composition.section:slicePregnancy.entry:sliceNumberPrenatalCareVisits"><path value="Composition.section.entry"/><sliceName value="sliceNumberPrenatalCareVisits"/><max value="1"/><mustSupport value="true"/></element><element id="Composition.section:slicePregnancy.entry:sliceMotherGetWICFood"><path value="Composition.section.entry"/><sliceName value="sliceMotherGetWICFood"/><max value="1"/><type><code value="Reference"/><targetProfile value="http://hl7.org/fhir/us/bfdr/StructureDefinition/Observation-mother-received-wic-food"/></type><mustSupport value="true"/></element><element id="Composition.section:slicePregnancy.entry:sliceNumberNowLiving"><path value="Composition.section.entry"/><sliceName value="sliceNumberNowLiving"/><max value="1"/></element><element id="Composition.section:slicePregnancy.entry:sliceNumberNowDead"><path value="Composition.section.entry"/><sliceName value="sliceNumberNowDead"/><max value="1"/></element><element id="Composition.section:slicePregnancy.entry:sliceDateLastLiveBirth"><path value="Composition.section.entry"/><sliceName value="sliceDateLastLiveBirth"/><max value="1"/></element><element id="Composition.section:slicePregnancy.entry:sliceNumberOtherOutcomes"><path value="Composition.section.entry"/><sliceName value="sliceNumberOtherOutcomes"/><max value="1"/></element><element id="Composition.section:slicePregnancy.entry:sliceDateLastOtherOutcome"><path value="Composition.section.entry"/><sliceName value="sliceDateLastOtherOutcome"/><max value="1"/></element><element id="Composition.section:slicePregnancy.entry:sliceCigaretteSmoking"><path value="Composition.section.entry"/><sliceName value="sliceCigaretteSmoking"/><type><code value="Reference"/><targetProfile value="http://hl7.org/fhir/us/bfdr/StructureDefinition/Observation-cigarette-smoking-before-during-pregnancy"/></type></element><element id="Composition.section:slicePregnancy.entry:sliceDateLastNormalMenses"><path value="Composition.section.entry"/><sliceName value="sliceDateLastNormalMenses"/><max value="1"/></element><element id="Composition.section:sliceLaborAndDelivery"><path value="Composition.section"/><sliceName value="sliceLaborAndDelivery"/></element><element id="Composition.section:sliceLaborAndDelivery.entry"><path value="Composition.section.entry"/><slicing><discriminator><type value="value"/><path value="url"/></discriminator><rules value="open"/></slicing></element><element id="Composition.section:sliceLaborAndDelivery.entry:sliceTest"><path value="Composition.section.entry"/><sliceName value="sliceTest"/></element><element id="Composition.section:sliceNewbornDelivery"><path value="Composition.section"/><sliceName value="sliceNewbornDelivery"/></element><element id="Composition.section:sliceMothersInformation"><path value="Composition.section"/><sliceName value="sliceMothersInformation"/></element><element id="Composition.section:sliceMothersInformation.focus"><path value="Composition.section.focus"/><type><code value="Reference"/><targetProfile value="http://hl7.org/fhir/us/fhir-vr-common-ig/StructureDefinition/Patient-Mother"/></type></element><element id="Composition.section:sliceMothersInformation.entry"><path value="Composition.section.entry"/><slicing><discriminator><type value="value"/><path value="url"/></discriminator><rules value="open"/></slicing></element><element id="Composition.section:sliceMothersInformation.entry:sliceEducation"><path value="Composition.section.entry"/><sliceName value="sliceEducation"/></element><element id="Composition.section:sliceFathersInformation"><path value="Composition.section"/><sliceName value="sliceFathersInformation"/></element><element id="Composition.section:sliceFathersInformation.focus"><path value="Composition.section.focus"/><type><code value="Reference"/><targetProfile value="http://hl7.org/fhir/us/bfdr/StructureDefinition/RelatedPerson-Father"/></type></element><element id="Composition.section:sliceFathersInformation.entry"><path value="Composition.section.entry"/><slicing><discriminator><type value="value"/><path value="url"/></discriminator><rules value="open"/></slicing></element><element id="Composition.section:sliceFathersInformation.entry:sliceEducation"><path value="Composition.section.entry"/><sliceName value="sliceEducation"/><max value="1"/><mustSupport value="true"/></element><element id="Composition.section:sliceNewbornInformation"><path value="Composition.section"/><sliceName value="sliceNewbornInformation"/></element><element id="Composition.section:sliceMothersVitalSigns"><path value="Composition.section"/><sliceName value="sliceMothersVitalSigns"/></element><element id="Composition.section:sliceMothersVitalSigns.focus"><path value="Composition.section.focus"/><type><code value="Reference"/><targetProfile value="http://hl7.org/fhir/us/fhir-vr-common-ig/StructureDefinition/Patient-Mother"/></type></element></differential></StructureDefinition></resource><search><mode value="include"/></search></entry><entry><fullUrl value="https://hapi4.lantanagroup.com/fhir/Patient/patient-newborn-unknown-name"/><resource><Patient><id value="patient-newborn-unknown-name"/><meta><versionId value="1"/><lastUpdated value="2020-07-27T06:05:53.011+00:00"/><source value="#9ASvMfHJk8yhn1tJ"/><profile value="http://hl7.org/fhir/us/bfdr/StructureDefinition/Patient-Newborn"/><security><system value="https://trifolia-fhir.lantanagroup.com/security"/><code value="everyone^read"/></security><security><system value="https://trifolia-fhir.lantanagroup.com/security"/><code value="everyone^write"/></security></meta><text><status value="generated"/><div xmlns="http://www.w3.org/1999/xhtml"><div class="hapiHeaderText"><b>null </b></div><table class="hapiPropertyTable"><tbody><tr><td>Identifier</td><td>9932799</td></tr><tr><td>Date of birth</td><td><span>07 July 2020</span></td></tr></tbody></table></div></text><extension url="http://hl7.org/fhir/us/core/StructureDefinition/us-core-race"><extension url="ombCategory"><valueCoding><system value="urn:oid:2.16.840.1.113883.6.238"/><code value="2106-3"/><display value="White"/></valueCoding></extension><extension url="text"><valueString value="White"/></extension></extension><extension url="http://hl7.org/fhir/us/core/StructureDefinition/us-core-ethnicity"><extension url="ombCategory"><valueCoding><system value="urn:oid:2.16.840.1.113883.6.238"/><code value="2186-5"/><display value="Not Hispanic or Latino"/></valueCoding></extension><extension url="text"><valueString value="Not Hispanic or Latino"/></extension></extension><extension url="http://hl7.org/fhir/us/core/StructureDefinition/us-core-birthsex"><valueCode value="F"/></extension><identifier><use value="usual"/><type><coding><system value="http://terminology.hl7.org/CodeSystem/v2-0203"/><code value="MR"/><display value="Medical Record Number"/></coding></type><system value="http://hospital.smarthealthit.org"/><value value="9932799"/></identifier><active value="true"/><name/><gender value="female"/><birthDate value="2020-07-07"><extension url="http://hl7.org/fhir/StructureDefinition/patient-birthTime"><valueDateTime value="2020-06-07T10:00:00-07:00"/></extension></birthDate></Patient></resource><search><mode value="include"/></search></entry><entry><fullUrl value="https://hapi4.lantanagroup.com/fhir/StructureDefinition/Observation-ssn-requested-for-child"/><resource><StructureDefinition><id value="Observation-ssn-requested-for-child"/><meta><versionId value="9"/><lastUpdated value="2020-07-30T06:46:47.579+00:00"/><source value="#yhCvD7wtkXjkQ5Iv"/><security><system value="https://trifolia-fhir.lantanagroup.com/security"/><code value="everyone^read"/></security><security><system value="https://trifolia-fhir.lantanagroup.com/security"/><code value="everyone^write"/></security></meta><extension url="https://trifolia-fhir.lantanagroup.com/StructureDefinition/extension-sd-intro"><valueMarkdown value="This concept is mapped to:&#xA;* Item **16. Social security number requested for child** in the *[U.S. Standard Certificate of Live Birth (rev. 2003)](https://www.cdc.gov/nchs/data/dvs/birth11-03final-ACC.pdf)*&#xA;&#xA;***Reason for not basing on US Core - no suitable Observation profile.***"/></extension><url value="http://hl7.org/fhir/us/bfdr/StructureDefinition/Observation-ssn-requested-for-child"/><version value="1.0.0"/><name value="ObservationSSNRequestedForChild"/><title value="Observation - Social Security Number Requested For Child"/><status value="active"/><experimental value="false"/><publisher value="HL7 Public Health Work Group"/><description value="This Observation profile represents whether or not a social security number has been requested for the child. If a social security number was requested, set valueBoolean=true and enter the time requested in the effectiveDateTime data element."/><jurisdiction><coding><system value="urn:iso:std:iso:3166"/><code value="US"/><display value="United States of America"/></coding></jurisdiction><fhirVersion value="4.0.1"/><kind value="resource"/><abstract value="false"/><type value="Observation"/><baseDefinition value="http://hl7.org/fhir/StructureDefinition/Observation"/><derivation value="constraint"/><differential><element id="Observation"><path value="Observation"/></element><element id="Observation.code"><path value="Observation.code"/><short value="Social Security Number was requested"/><min value="1"/><max value="1"/><patternCodeableConcept><coding><system value="http://loinc.org"/><code value="87295-2"/></coding></patternCodeableConcept><mustSupport value="true"/></element><element id="Observation.effective[x]"><path value="Observation.effective[x]"/><short value="Date/time social security number requested"/><min value="0"/><max value="1"/><type><code value="dateTime"/></type><mustSupport value="true"/></element><element id="Observation.value[x]"><path value="Observation.value[x]"/><short value="Social security number requested for child?"/><min value="1"/><max value="1"/><type><code value="boolean"/></type><mustSupport value="true"/></element></differential></StructureDefinition></resource><search><mode value="include"/></search></entry><entry><fullUrl value="https://hapi4.lantanagroup.com/fhir/RelatedPerson/relatedperson-eve-everywoman"/><resource><RelatedPerson><id value="relatedperson-eve-everywoman"/><meta><versionId value="1"/><lastUpdated value="2020-07-12T01:16:19.520+00:00"/><source value="#x4ziThQanWqjhxUc"/><profile value="http://hl7.org/fhir/us/bfdr/StructureDefinition/RelatedPerson-Mother"/><security><system value="https://trifolia-fhir.lantanagroup.com/security"/><code value="everyone^read"/></security><security><system value="https://trifolia-fhir.lantanagroup.com/security"/><code value="everyone^write"/></security></meta><identifier><use value="usual"/><type><coding><system value="http://terminology.hl7.org/CodeSystem/v2-0203"/><code value="MR"/><display value="Medical Record Number"/></coding></type><system value="http://hospital.smarthealthit.org"/><value value="1032702"/></identifier><active value="true"/><patient><reference value="Patient/patient-newborn-baby-everybaby"/></patient><relationship><coding><system value="http://terminology.hl7.org/CodeSystem/v3-RoleCode"/><code value="NMTH"/><display value="natural mother"/></coding><text value="Natural Mother"/></relationship><name><use value="official"/><family value="Everywoman"/><given value="Eve"/><given value="L"/></name><gender value="female"/><birthDate value="1974-11-24"/></RelatedPerson></resource><search><mode value="include"/></search></entry><entry><fullUrl value="https://hapi4.lantanagroup.com/fhir/RelatedPerson/relatedperson-father-everyfather"/><resource><RelatedPerson><id value="relatedperson-father-everyfather"/><meta><versionId value="1"/><lastUpdated value="2020-07-12T01:16:19.521+00:00"/><source value="#iihNYyce8bM8ITGn"/><profile value="http://hl7.org/fhir/us/bfdr/StructureDefinition/RelatedPerson-Father"/><security><system value="https://trifolia-fhir.lantanagroup.com/security"/><code value="everyone^read"/></security><security><system value="https://trifolia-fhir.lantanagroup.com/security"/><code value="everyone^write"/></security></meta><identifier><type><coding><system value="http://terminology.hl7.org/CodeSystem/v2-0203"/><code value="SS"/></coding></type><system value="http://hl7.org/fhir/sid/us-ssn"/><value value="444222222"/></identifier><active value="true"/><patient><reference value="Patient/patient-newborn-baby-everybaby"/></patient><relationship><coding><system value="http://terminology.hl7.org/CodeSystem/v3-RoleCode"/><code value="NFTH"/><display value="natural father"/></coding><text value="Natural Father"/></relationship><name><use value="official"/><family value="Everyfather"/><given value="Father"/></name><gender value="male"/><birthDate value="1972-11-24"/></RelatedPerson></resource><search><mode value="include"/></search></entry><entry><fullUrl value="https://hapi4.lantanagroup.com/fhir/StructureDefinition/Procedure-final-route-method-delivery"/><resource><StructureDefinition><id value="Procedure-final-route-method-delivery"/><meta><versionId value="6"/><lastUpdated value="2020-07-20T06:55:47.964+00:00"/><source value="#t2xUKVavGMQRQINV"/><security><system value="https://trifolia-fhir.lantanagroup.com/security"/><code value="everyone^read"/></security><security><system value="https://trifolia-fhir.lantanagroup.com/security"/><code value="everyone^write"/></security></meta><extension url="https://trifolia-fhir.lantanagroup.com/StructureDefinition/extension-sd-intro"><valueMarkdown value="This concept is mapped to:&#xA;* Item **46d. Final Route and Method of Delivery** in the *[U.S. Standard Certificate of Live Birth (rev. 2003)](https://www.cdc.gov/nchs/data/dvs/birth11-03final-ACC.pdf)*&#xA;* Item **38d. Final Route and Method of Delivery** in the *[U.S. Standard Report of Fetal Death (rev. 2003)](https://www.cdc.gov/nchs/data/dvs/FDEATH11-03finalACC.pdf)*"/></extension><url value="http://hl7.org/fhir/us/bfdr/StructureDefinition/Procedure-final-route-method-delivery"/><version value="1.0"/><name value="ProcedureFinalRouteMethodDelivery"/><title value="Procedure - Final Route and Method of Delivery"/><status value="draft"/><experimental value="false"/><date value="2020-06-30"/><publisher value="HL7 Public Health Work Group"/><description value="This profile represents the final route and method of delivery."/><jurisdiction><coding><system value="urn:iso:std:iso:3166"/><code value="US"/><display value="United States of America"/></coding></jurisdiction><fhirVersion value="4.0.1"/><kind value="resource"/><abstract value="false"/><type value="Procedure"/><baseDefinition value="http://hl7.org/fhir/us/core/StructureDefinition/us-core-procedure"/><derivation value="constraint"/><differential><element id="Procedure"><path value="Procedure"/></element><element id="Procedure.code"><path value="Procedure.code"/><binding><strength value="extensible"/><valueSet value="https://phinvads.cdc.gov/vads/ViewValueSet.action?oid=2.16.840.1.114222.4.11.7"/></binding></element><element id="Procedure.reasonReference"><path value="Procedure.reasonReference"/><short value="If cesarean, was a trial of labor attempted?"/><type><code value="Reference"/><targetProfile value="http://hl7.org/fhir/us/bfdr/StructureDefinition/Observation-labor-trial-attempted"/></type><mustSupport value="true"/></element></differential></StructureDefinition></resource><search><mode value="include"/></search></entry><entry><fullUrl value="https://hapi4.lantanagroup.com/fhir/StructureDefinition/Observation-planned-to-deliver-at-home"/><resource><StructureDefinition><id value="Observation-planned-to-deliver-at-home"/><meta><versionId value="13"/><lastUpdated value="2020-07-30T06:46:17.140+00:00"/><source value="#Mr8EjL22v1g7I9wL"/><security><system value="https://trifolia-fhir.lantanagroup.com/security"/><code value="everyone^read"/></security><security><system value="https://trifolia-fhir.lantanagroup.com/security"/><code value="everyone^write"/></security></meta><extension url="https://trifolia-fhir.lantanagroup.com/StructureDefinition/extension-sd-intro"><valueMarkdown value="This concept is mapped to:&#xA;* Item **26. Planned to deliver at home?** in the *[U.S. Standard Certificate of Live Birth (rev. 2003)](https://www.cdc.gov/nchs/data/dvs/birth11-03final-ACC.pdf)*&#xA;* Item **7. Planned to deliver at home?** in the *[U.S. Standard Report of Fetal Death (rev. 2003)](https://www.cdc.gov/nchs/data/dvs/FDEATH11-03finalACC.pdf)*&#xA;&#xA;&#xA;**TODO**&#xA;&#xA;Would this be better as an extension?&#xA;&#xA;***Reason for not basing on US Core - no suitable Observation profile.***"/></extension><url value="http://hl7.org/fhir/us/bfdr/StructureDefinition/Observation-planned-to-deliver-at-home"/><version value="1.0.0"/><name value="ObservationPlannedToDeliverAtHome"/><title value="Observation - Planned to Deliver at Home"/><status value="active"/><experimental value="false"/><publisher value="HL7 Public Health Work Group"/><description value="This Observation profile represents whether or not a home birth was planned for the infant."/><jurisdiction><coding><system value="urn:iso:std:iso:3166"/><code value="US"/><display value="United States of America"/></coding></jurisdiction><fhirVersion value="4.0.1"/><kind value="resource"/><abstract value="false"/><type value="Observation"/><baseDefinition value="http://hl7.org/fhir/StructureDefinition/Observation"/><derivation value="constraint"/><differential><element id="Observation"><path value="Observation"/></element><element id="Observation.code"><path value="Observation.code"/><short value="Mother Planned to deliver at home [US Standard Certificate of Live Birth]"/><min value="1"/><max value="1"/><patternCodeableConcept><coding><system value="http://loinc.org"/><code value="73765-0"/></coding></patternCodeableConcept><mustSupport value="true"/></element><element id="Observation.value[x]"><path value="Observation.value[x]"/><short value="Planned to deliver at home?"/><min value="1"/><max value="1"/><type><code value="boolean"/></type><mustSupport value="true"/></element></differential></StructureDefinition></resource><search><mode value="include"/></search></entry><entry><fullUrl value="https://hapi4.lantanagroup.com/fhir/StructureDefinition/Observation-date-of-first-prenatal-care-visit"/><resource><StructureDefinition><id value="Observation-date-of-first-prenatal-care-visit"/><meta><versionId value="14"/><lastUpdated value="2020-07-30T06:40:17.036+00:00"/><source value="#UJKtLPYzQ7xuKWNO"/><security><system value="https://trifolia-fhir.lantanagroup.com/security"/><code value="everyone^read"/></security><security><system value="https://trifolia-fhir.lantanagroup.com/security"/><code value="everyone^write"/></security></meta><extension url="https://trifolia-fhir.lantanagroup.com/StructureDefinition/extension-sd-intro"><valueMarkdown value="This concept is mapped to:&#xA;* Item **29a. Date of first prenatal care visit ** in the *[U.S. Standard Certificate of Live Birth (rev. 2003)](https://www.cdc.gov/nchs/data/dvs/birth11-03final-ACC.pdf)*&#xA;* Item **23a. Date of first prenatal care visit** in the *[U.S. Standard Report of Fetal Death (rev. 2003)](https://www.cdc.gov/nchs/data/dvs/FDEATH11-03finalACC.pdf)*&#xA;&#xA;***Reason for not basing on US Core - no suitable Observation profile.***"/></extension><url value="http://hl7.org/fhir/us/bfdr/StructureDefinition/Observation-date-of-first-prenatal-care-visit"/><version value="1.0.0"/><name value="ObservationDateOfFirstPrenatalCareVisit"/><title value="Observation - Date of First Prenatal Care Visit"/><status value="active"/><experimental value="false"/><publisher value="HL7 Public Health Work Group"/><description value="This profile represents the date of the first prenatal care visit for this pregnancy. A prenatal visit is where a physician or other health care professional examined and/or counseled the pregnant woman for the pregnancy. If this profile is not present it indicates that the mother did not receive prenatal care at any time during the pregnancy."/><jurisdiction><coding><system value="urn:iso:std:iso:3166"/><code value="US"/><display value="United States of America"/></coding></jurisdiction><fhirVersion value="4.0.1"/><kind value="resource"/><abstract value="false"/><type value="Observation"/><baseDefinition value="http://hl7.org/fhir/StructureDefinition/Observation"/><derivation value="constraint"/><differential><element id="Observation"><path value="Observation"/></element><element id="Observation.code"><path value="Observation.code"/><short value="Date of first prenatal care visit"/><min value="1"/><max value="1"/><patternCodeableConcept><coding><system value="http://loinc.org"/><code value="69044-6"/></coding></patternCodeableConcept><mustSupport value="true"/></element><element id="Observation.value[x]"><path value="Observation.value[x]"/><short value="Date of first prenatal care visit"/><min value="1"/><max value="1"/><type><code value="dateTime"/></type><mustSupport value="true"/></element></differential></StructureDefinition></resource><search><mode value="include"/></search></entry><entry><fullUrl value="https://hapi4.lantanagroup.com/fhir/StructureDefinition/Observation-mother-received-wic-food"/><resource><StructureDefinition><id value="Observation-mother-received-wic-food"/><meta><versionId value="10"/><lastUpdated value="2020-07-30T06:44:18.610+00:00"/><source value="#8ScFsetgNwsJouH0"/><security><system value="https://trifolia-fhir.lantanagroup.com/security"/><code value="everyone^read"/></security><security><system value="https://trifolia-fhir.lantanagroup.com/security"/><code value="everyone^write"/></security></meta><extension url="https://trifolia-fhir.lantanagroup.com/StructureDefinition/extension-sd-intro"><valueMarkdown value="This concept is mapped to:&#xA;* Item **34. Did mother get WIC food for herself during this pregnancy?** in the *[U.S. Standard Certificate of Live Birth (rev. 2003)](https://www.cdc.gov/nchs/data/dvs/birth11-03final-ACC.pdf)*&#xA;* Item **28. Did mother get WIC food for herself during this pregnancy?** in the *[U.S. Standard Report of Fetal Death (rev. 2003)](https://www.cdc.gov/nchs/data/dvs/FDEATH11-03finalACC.pdf)*&#xA;&#xA;***Reason for not basing on US Core - no suitable Observation profile.***"/></extension><url value="http://hl7.org/fhir/us/bfdr/StructureDefinition/Observation-mother-received-wic-food"/><version value="1.0.0"/><name value="ObservationMotherReceivedWICFood"/><title value="Observation - Mother Recieved WIC Food"/><status value="active"/><experimental value="false"/><publisher value="HL7 Public Health Work Group"/><description value="This profile represents whether or not the mother made use of the Women, Infants and Children (WIC) nutritional program during the pregnancy."/><jurisdiction><coding><system value="urn:iso:std:iso:3166"/><code value="US"/><display value="United States of America"/></coding></jurisdiction><fhirVersion value="4.0.1"/><kind value="resource"/><abstract value="false"/><type value="Observation"/><baseDefinition value="http://hl7.org/fhir/StructureDefinition/Observation"/><derivation value="constraint"/><differential><element id="Observation"><path value="Observation"/></element><element id="Observation.code"><path value="Observation.code"/><short value="Mother WIC food recipient"/><min value="1"/><max value="1"/><patternCodeableConcept><coding><system value="http://loinc.org"/><code value="87303-4"/></coding></patternCodeableConcept><mustSupport value="true"/></element><element id="Observation.value[x]"><path value="Observation.value[x]"/><short value="Did mother get WIC food for herself during this pregnancy?"/><min value="1"/><max value="1"/><type><code value="boolean"/></type><mustSupport value="true"/></element></differential></StructureDefinition></resource><search><mode value="include"/></search></entry><entry><fullUrl value="https://hapi4.lantanagroup.com/fhir/StructureDefinition/Observation-labor-trial-attempted"/><resource><StructureDefinition><id value="Observation-labor-trial-attempted"/><meta><versionId value="4"/><lastUpdated value="2020-07-30T06:43:13.807+00:00"/><source value="#1eR1ndEHkcduogwp"/><security><system value="https://trifolia-fhir.lantanagroup.com/security"/><code value="everyone^read"/></security><security><system value="https://trifolia-fhir.lantanagroup.com/security"/><code value="everyone^write"/></security></meta><extension url="https://trifolia-fhir.lantanagroup.com/StructureDefinition/extension-sd-intro"><valueMarkdown value="This concept is mapped to:&#xA;* Item **46d. If cesarean, was a trial of labor attempted?** in the *[U.S. Standard Certificate of Live Birth (rev. 2003)](https://www.cdc.gov/nchs/data/dvs/birth11-03final-ACC.pdf)*&#xA;* Item **38d. If cesarean, was a trial of labor attempted?** in the *[U.S. Standard Report of Fetal Death (rev. 2003)](https://www.cdc.gov/nchs/data/dvs/FDEATH11-03finalACC.pdf)*&#xA;&#xA;***Reason for not basing on US Core - no suitable Observation profile.***"/></extension><url value="http://hl7.org/fhir/us/bfdr/StructureDefinition/Observation-labor-trial-attempted"/><version value="1.0.0"/><name value="ObservationLaborTrialAttempted"/><title value="Observation - Labor Trial Attempted"/><status value="active"/><experimental value="false"/><publisher value="HL7 Public Health Work Group"/><description value="This Observation profile represents whether, in the case of a cesarean delivery, a trial of labor was attempted."/><jurisdiction><coding><system value="urn:iso:std:iso:3166"/><code value="US"/><display value="United States of America"/></coding></jurisdiction><fhirVersion value="4.0.1"/><kind value="resource"/><abstract value="false"/><type value="Observation"/><baseDefinition value="http://hl7.org/fhir/StructureDefinition/Observation"/><derivation value="constraint"/><differential><element id="Observation"><path value="Observation"/></element><element id="Observation.code"><path value="Observation.code"/><short value="If cesarean, a trial of labor was attempted [US Standard Certificate of Live Birth]"/><min value="1"/><max value="1"/><patternCodeableConcept><coding><system value="http://loinc.org"/><code value="73760-1"/></coding></patternCodeableConcept><mustSupport value="true"/></element><element id="Observation.value[x]"><path value="Observation.value[x]"/><min value="1"/><max value="1"/><type><code value="boolean"/></type></element></differential></StructureDefinition></resource><search><mode value="include"/></search></entry><entry><fullUrl value="https://hapi4.lantanagroup.com/fhir/StructureDefinition/Condition-infection-present-during-pregnancy"/><resource><StructureDefinition><id value="Condition-infection-present-during-pregnancy"/><meta><versionId value="6"/><lastUpdated value="2020-08-03T22:20:01.426+00:00"/><source value="#L9ishSVHEwIjM8XH"/><security><system value="https://trifolia-fhir.lantanagroup.com/security"/><code value="everyone^read"/></security><security><system value="https://trifolia-fhir.lantanagroup.com/security"/><code value="everyone^write"/></security></meta><url value="http://hl7.org/fhir/us/bfdr/StructureDefinition/Condition-infection-present-during-pregnancy"/><version value="1.0.0"/><name value="ConditionInfectionPresentDuringPregnancy"/><title value="Condition - Infection Present During Pregnancy"/><status value="active"/><experimental value="false"/><publisher value="HL7 Public Health Work Group"/><description value="This Condition profile represents infections present and/or treated during the pregnancy. This includes infections present at the start of pregnancy or confirmed diagnosis during pregnancy with or without documentation of treatment. Documentation of treatment during this pregnancy is adequate if a definitive diagnosis is not present in the available record."/><jurisdiction><coding><system value="urn:iso:std:iso:3166"/><code value="US"/><display value="United States of America"/></coding></jurisdiction><fhirVersion value="4.0.1"/><kind value="resource"/><abstract value="false"/><type value="Condition"/><baseDefinition value="http://hl7.org/fhir/us/core/StructureDefinition/us-core-condition"/><derivation value="constraint"/><differential><element id="Condition"><path value="Condition"/><short value="Information on infections present and/or treated during the pregnancy. This includes infections present at the start of pregnancy or confirmed diagnosis during pregnancy with or without documentation of treatment. Documentation of treatment during this pregnancy is adequate if a definitive diagnosis is not present in the available record."/></element><element id="Condition.category"><path value="Condition.category"/><short value="Infections present AndOr treated during this pregnancy for live birth [US Standard Certificate of Live Birth]"/><max value="1"/><patternCodeableConcept><coding><system value="http://loinc.org"/><code value="72519-2"/></coding></patternCodeableConcept></element><element id="Condition.code"><path value="Condition.code"/><short value="Infections present and/or treated during this pregnancy for live birth as required by the National US Standards. Note: Genital herpes simplex (SNOMED code 33839006) is only a Michigan state-specific requirement."/><binding><strength value="extensible"/><valueSet value="https://phinvads.cdc.gov/vads/ViewValueSet.action?oid=2.16.840.1.114222.4.11.6070"/></binding></element><element id="Condition.subject"><path value="Condition.subject"/><type><code value="Reference"/><targetProfile value="http://hl7.org/fhir/us/fhir-vr-common-ig/StructureDefinition/Patient-Mother"/></type></element></differential></StructureDefinition></resource><search><mode value="include"/></search></entry><entry><fullUrl value="https://hapi4.lantanagroup.com/fhir/ValueSet/ValueSet-cigarette-smoking-before-during-pregnancy"/><resource><ValueSet><id value="ValueSet-cigarette-smoking-before-during-pregnancy"/><meta><versionId value="3"/><lastUpdated value="2020-07-11T01:35:04.932+00:00"/><source value="#Gm4VSFA8sdifItj5"/><security><system value="https://trifolia-fhir.lantanagroup.com/security"/><code value="everyone^read"/></security><security><system value="https://trifolia-fhir.lantanagroup.com/security"/><code value="everyone^write"/></security></meta><url value="http://hl7.org/fhir/us/bfdr/ValueSet/ValueSet-cigarette-smoking-before-during-pregnancy"/><name value="ValueSetCigaretteSmokingBeforeAndDuringPregnancy"/><title value="Cigarette Smoking Before and During Pregnancy"/><status value="active"/><description value="This value set contains codes to determine the number of cigarettes smoked before and during pregnancy."/><compose><include><system value="http://loinc.org"/><concept><code value="64794-1"/><display value="In the 3 months before you got pregnant, how many cigarettes did you smoke on an average day [PhenX]"/></concept><concept><code value="87298-6"/><display value="Cigarettes smoked per day by Mother--1st trimester"/></concept><concept><code value="87299-4"/><display value="Cigarettes smoked per day by Mother--2nd trimester"/></concept><concept><code value="64795-8"/><display value="In the last 3 months of your pregnancy, how many cigarettes did you smoke on an average day [PhenX]"/></concept></include></compose></ValueSet></resource><search><mode value="include"/></search></entry><entry><fullUrl value="https://hapi4.lantanagroup.com/fhir/StructureDefinition/Composition-provider-mothers-live-birth-report"/><resource><StructureDefinition><id value="Composition-provider-mothers-live-birth-report"/><meta><versionId value="4"/><lastUpdated value="2020-08-03T22:12:29.775+00:00"/><source value="#k6U9IjWYzWZEkTAC"/><security><system value="https://trifolia-fhir.lantanagroup.com/security"/><code value="everyone^read"/></security><security><system value="https://trifolia-fhir.lantanagroup.com/security"/><code value="everyone^write"/></security></meta><url value="http://hl7.org/fhir/us/bfdr/StructureDefinition/Composition-provider-mothers-live-birth-report"/><version value="1.0.0"/><name value="CompositionProviderMothersLiveBirthReport"/><title value="Composition - Provider Supplied Mother's Live Birth Report"/><status value="active"/><experimental value="false"/><publisher value="HL7 Public Health Work Group"/><description value="This Composition profile defines constraints to address the use case in which information collected from the mother, as primarily defined using the Mother's Worksheet, is managed independently for communication to the jurisdictional Vital Records Office."/><jurisdiction><coding><system value="urn:iso:std:iso:3166"/><code value="US"/><display value="United States of America"/></coding></jurisdiction><fhirVersion value="4.0.1"/><kind value="resource"/><abstract value="false"/><type value="Composition"/><baseDefinition value="http://hl7.org/fhir/StructureDefinition/Composition"/><derivation value="constraint"/><differential><element id="Composition"><path value="Composition"/></element><element id="Composition.subject"><path value="Composition.subject"/><min value="1"/><type><code value="Reference"/><targetProfile value="http://hl7.org/fhir/us/fhir-vr-common-ig/StructureDefinition/Patient-child"/></type></element><element id="Composition.encounter"><path value="Composition.encounter"/><type><code value="Reference"/><targetProfile value="http://hl7.org/fhir/us/bfdr/StructureDefinition/Encounter-Birth"/></type><mustSupport value="true"/></element><element id="Composition.section"><path value="Composition.section"/><slicing><discriminator><type value="value"/><path value="code"/></discriminator><rules value="open"/></slicing></element><element id="Composition.section:slice2191"><path value="Composition.section"/><sliceName value="slice2191"/></element></differential></StructureDefinition></resource><search><mode value="include"/></search></entry><entry><fullUrl value="https://hapi4.lantanagroup.com/fhir/StructureDefinition/Observation-cigarette-smoking-before-during-pregnancy"/><resource><StructureDefinition><id value="Observation-cigarette-smoking-before-during-pregnancy"/><meta><versionId value="21"/><lastUpdated value="2020-07-30T06:41:59.694+00:00"/><source value="#nda2x7eUW3Tn0ySB"/><security><system value="https://trifolia-fhir.lantanagroup.com/security"/><code value="everyone^read"/></security><security><system value="https://trifolia-fhir.lantanagroup.com/security"/><code value="everyone^write"/></security></meta><extension url="https://trifolia-fhir.lantanagroup.com/StructureDefinition/extension-sd-intro"><valueMarkdown value="This concept is mapped to:&#xA;* Item **37. Cigarette smoking before and during pregnancy** in the *[U.S. Standard Certificate of Live Birth (rev. 2003)](https://www.cdc.gov/nchs/data/dvs/birth11-03final-ACC.pdf)*&#xA;* Item **31. Cigarette smoking before and during pregnancy** in the *[U.S. Standard Report of Fetal Death (rev. 2003)](https://www.cdc.gov/nchs/data/dvs/FDEATH11-03finalACC.pdf)*&#xA;&#xA;***Reason for not basing on US Core - no suitable Observation profile.***"/></extension><url value="http://hl7.org/fhir/us/bfdr/StructureDefinition/Observation-cigarette-smoking-before-during-pregnancy"/><version value="1.0.0"/><name value="ObservationCigaretteSmokingBeforeDuringPregnancy"/><title value="Observation - Cigarette Smoking Before and During Pregnancy"/><status value="active"/><experimental value="false"/><publisher value="HL7 Public Health Work Group"/><description value="This profile represents the average number of cigarettes smoked per day for each time period indicated by the value selected for code:&#xA;* Number of Cigarettes Smoked in 3 months prior to Pregnancy&#xA;* Number of Cigarettes Smoked in 1st 3 months&#xA;* Number of Cigarettes Smoked in 2nd 3 months&#xA;* Number of Cigarettes Smoked in third or last trimester&#xA;&#xA;Where number of packs per day are provided, calculate number of cigarettes per day (a pack has 20 cigarettes) and record that number."/><jurisdiction><coding><system value="urn:iso:std:iso:3166"/><code value="US"/><display value="United States of America"/></coding></jurisdiction><fhirVersion value="4.0.1"/><kind value="resource"/><abstract value="false"/><type value="Observation"/><baseDefinition value="http://hl7.org/fhir/StructureDefinition/Observation"/><derivation value="constraint"/><differential><element id="Observation"><path value="Observation"/></element><element id="Observation.code"><path value="Observation.code"/><min value="1"/><max value="1"/><mustSupport value="false"/><binding><strength value="extensible"/><valueSet value="http://hl7.org/fhir/us/bfdr/ValueSet/ValueSet-cigarette-smoking-before-during-pregnancy"/></binding></element><element id="Observation.value[x]"><path value="Observation.value[x]"/><short value="Average number of cigarettes smoked per day"/><definition value="Average number of cigarettes smoked per day. Where number of packs per day are provided, calculate number of cigarettes per day (a pack has 20 cigarettes) and record that number."/><min value="1"/><max value="1"/><type><code value="integer"/></type><mustSupport value="true"/></element></differential></StructureDefinition></resource><search><mode value="include"/></search></entry><entry><fullUrl value="https://hapi4.lantanagroup.com/fhir/StructureDefinition/Patient-Mother"/><resource><StructureDefinition><id value="Patient-Mother"/><meta><versionId value="25"/><lastUpdated value="2020-08-03T07:23:58.085+00:00"/><source value="#KEb09ZTgT450g14R"/><security><system value="https://trifolia-fhir.lantanagroup.com/security"/><code value="everyone^read"/></security><security><system value="https://trifolia-fhir.lantanagroup.com/security"/><code value="everyone^write"/></security></meta><url value="http://hl7.org/fhir/us/fhir-vr-common-ig/StructureDefinition/Patient-Mother"/><version value="0.1.0"/><name value="PatientMother"/><title value="Patient - Mother"/><status value="active"/><date value="2020-07-17T18:56:31+00:00"/><contact><name value="HL7 International - Public Health"/><telecom><system value="url"/><value value="http://www.hl7.org/Special/committees/pher"/></telecom></contact><description value="This Patient profile represents the woman who gave birth to, or delivered the infant."/><jurisdiction><coding><system value="urn:iso:std:iso:3166"/><code value="US"/></coding></jurisdiction><fhirVersion value="4.0.1"/><kind value="resource"/><abstract value="false"/><type value="Patient"/><baseDefinition value="http://hl7.org/fhir/us/core/StructureDefinition/us-core-patient"/><derivation value="constraint"/><differential><element id="Patient"><path value="Patient"/></element><element id="Patient.extension:birthPlace"><path value="Patient.extension"/><sliceName value="birthPlace"/><short value="Place of Birth for the patient should include the state and/or country"/><min value="0"/><max value="1"/><type><code value="Extension"/><profile value="http://hl7.org/fhir/StructureDefinition/patient-birthPlace"/></type><mustSupport value="true"/></element><element id="Patient.identifier"><path value="Patient.identifier"/><slicing><discriminator><type value="pattern"/><path value="type"/></discriminator><description value="Slice based on ID type"/><ordered value="false"/><rules value="open"/></slicing></element><element id="Patient.identifier:MRN"><path value="Patient.identifier"/><sliceName value="MRN"/><short value="Medical Record Number"/><min value="0"/><max value="*"/></element><element id="Patient.identifier:MRN.type"><path value="Patient.identifier.type"/><min value="1"/><patternCodeableConcept><coding><system value="http://terminology.hl7.org/CodeSystem/v2-0203"/><code value="MR"/></coding></patternCodeableConcept></element><element id="Patient.identifier:SSN"><path value="Patient.identifier"/><sliceName value="SSN"/><short value="SSN if available and appropriate to send"/><min value="0"/><max value="1"/></element><element id="Patient.identifier:SSN.type"><path value="Patient.identifier.type"/><min value="1"/><patternCodeableConcept><coding><system value="http://terminology.hl7.org/CodeSystem/v2-0203"/><code value="SB"/></coding></patternCodeableConcept></element><element id="Patient.name.family"><path value="Patient.name.family"/><min value="1"/></element><element id="Patient.birthDate"><path value="Patient.birthDate"/><min value="1"/></element><element id="Patient.deceased[x]"><path value="Patient.deceased[x]"/><short value="Indicates if the individual is deceased or not, dateTime is preferred"/><mustSupport value="true"/></element><element id="Patient.link"><path value="Patient.link"/><slicing><discriminator><type value="pattern"/><path value="type"/></discriminator><description value="Slice based on link type"/><ordered value="false"/><rules value="open"/></slicing><mustSupport value="true"/></element><element id="Patient.link:mother"><path value="Patient.link"/><sliceName value="mother"/><short value="Link to the birth mother's RelatedPerson record"/><min value="0"/><max value="1"/></element><element id="Patient.link:mother.other"><path value="Patient.link.other"/><type><extension url="http://hl7.org/fhir/StructureDefinition/structuredefinition-hierarchy"><valueBoolean value="false"/></extension><code value="Reference"/><targetProfile value="http://hl7.org/fhir/us/fhir-vr-common-ig/StructureDefinition/RelatedPerson-Mother"/></type></element><element id="Patient.link:mother.type"><path value="Patient.link.type"/><patternCode value="seealso"/></element></differential></StructureDefinition></resource><search><mode value="include"/></search></entry><entry><fullUrl value="https://hapi4.lantanagroup.com/fhir/PractitionerRole/practitionerrole-henry-seven"/><resource><PractitionerRole><id value="practitionerrole-henry-seven"/><meta><versionId value="3"/><lastUpdated value="2020-07-10T05:59:11.897+00:00"/><source value="#BQvF4QbkNWtyJJs3"/><profile value="http://hl7.org/fhir/us/core/StructureDefinition/us-core-practitionerrole"/><security><system value="https://trifolia-fhir.lantanagroup.com/security"/><code value="everyone^read"/></security><security><system value="https://trifolia-fhir.lantanagroup.com/security"/><code value="everyone^write"/></security><security><system value="https://trifolia-fhir.lantanagroup.com/security"/><code value="user^s7DIn2HM^read"/></security><security><system value="https://trifolia-fhir.lantanagroup.com/security"/><code value="user^s7DIn2HM^write"/></security></meta><identifier><system value="http://hl7.org/fhir/sid/us-npi"/><value value="9941339108"/></identifier><practitioner><reference value="Practitioner/practitioner-us-core-henry-seven"/><display value="Henry Seven, MD"/></practitioner><organization><reference value="Organization/organization-salem-medical-center"/><display value="Salem Medical Center"/></organization><code><coding><system value="http://nucc.org/provider-taxonomy"/><code value="261QP2300X"/><display value="Primary Care"/></coding></code><specialty><coding><system value="http://snomed.info/sct"/><code value="419772000"/><display value="Family Practice"/></coding></specialty><location><reference value="Location/location-salem-medical-center"/><display value="Salem Medical Center"/></location><telecom><system value="email"/><value value="henry.seven@example.com"/></telecom></PractitionerRole></resource><search><mode value="include"/></search></entry><entry><fullUrl value="https://hapi4.lantanagroup.com/fhir/StructureDefinition/Composition-provider-facility-live-birth-report"/><resource><StructureDefinition><id value="Composition-provider-facility-live-birth-report"/><meta><versionId value="10"/><lastUpdated value="2020-08-03T22:22:22.641+00:00"/><source value="#2K7pjj0tc9IYPFTc"/><security><system value="https://trifolia-fhir.lantanagroup.com/security"/><code value="everyone^read"/></security><security><system value="https://trifolia-fhir.lantanagroup.com/security"/><code value="everyone^write"/></security></meta><url value="http://hl7.org/fhir/us/bfdr/StructureDefinition/Composition-provider-facility-live-birth-report"/><version value="1.0.0"/><name value="CompositionProviderFacilityLiveBirthReport"/><title value="Composition - Provider Supplied Facility Live Birth Report"/><status value="active"/><experimental value="false"/><publisher value="HL7 Public Health Work Group"/><description value="This Composition profile defines constraints to address the use case in which information for labor and delivery and the condition of the newborn collected by healthcare provider staff, as primarily defined using the Facility Worksheet, is managed independently for communication to the jurisdictional Vital Records Office."/><jurisdiction><coding><system value="urn:iso:std:iso:3166"/><code value="US"/><display value="United States of America"/></coding></jurisdiction><fhirVersion value="4.0.1"/><kind value="resource"/><abstract value="false"/><type value="Composition"/><baseDefinition value="http://hl7.org/fhir/StructureDefinition/Composition"/><derivation value="constraint"/><differential><element id="Composition"><path value="Composition"/></element><element id="Composition.subject"><path value="Composition.subject"/><min value="1"/><type><code value="Reference"/><targetProfile value="http://hl7.org/fhir/us/fhir-vr-common-ig/StructureDefinition/Patient-decedant-fetus"/></type></element><element id="Composition.encounter"><path value="Composition.encounter"/><type><code value="Reference"/><targetProfile value="http://hl7.org/fhir/us/bfdr/StructureDefinition/Encounter-Maternity"/></type><mustSupport value="true"/></element><element id="Composition.section"><path value="Composition.section"/><slicing><discriminator><type value="value"/><path value="code"/></discriminator><rules value="open"/></slicing></element><element id="Composition.section:slicePrenatal"><path value="Composition.section"/><sliceName value="slicePrenatal"/><short value="Prenatal section on the Facility Worksheet"/><definition value="This section contains items from the Prenatal section on the Facility Worksheet for the Live Birth Certificate. Sources: Prenatal care records, mother's medical records, labor and delivery records."/></element><element id="Composition.section:slicePrenatal.focus"><path value="Composition.section.focus"/><type><code value="Reference"/><targetProfile value="http://hl7.org/fhir/us/fhir-vr-common-ig/StructureDefinition/Patient-Mother"/></type></element><element id="Composition.section:slicePrenatal.entry"><path value="Composition.section.entry"/><slicing><discriminator><type value="value"/><path value="url"/></discriminator><rules value="open"/></slicing></element><element id="Composition.section:slicePrenatal.entry:sliceFirstPrenatalCareVisit"><path value="Composition.section.entry"/><sliceName value="sliceFirstPrenatalCareVisit"/><max value="1"/><type><code value="Reference"/><targetProfile value="http://hl7.org/fhir/us/bfdr/StructureDefinition/Observation-date-of-first-prenatal-care-visit"/></type><mustSupport value="true"/></element><element id="Composition.section:slicePrenatal.entry:sliceNumberPrenatalCareVisits"><path value="Composition.section.entry"/><sliceName value="sliceNumberPrenatalCareVisits"/><max value="1"/><mustSupport value="true"/></element><element id="Composition.section:slicePrenatal.entry:sliceDateLastNormalMenses"><path value="Composition.section.entry"/><sliceName value="sliceDateLastNormalMenses"/><max value="1"/><mustSupport value="true"/></element><element id="Composition.section:slicePrenatal.entry:sliceNumberNowLiving"><path value="Composition.section.entry"/><sliceName value="sliceNumberNowLiving"/><max value="1"/><mustSupport value="true"/></element><element id="Composition.section:slicePrenatal.entry:sliceNumberNowDead"><path value="Composition.section.entry"/><sliceName value="sliceNumberNowDead"/><max value="1"/><mustSupport value="true"/></element><element id="Composition.section:slicePrenatal.entry:sliceDateLastLiveBirth"><path value="Composition.section.entry"/><sliceName value="sliceDateLastLiveBirth"/><max value="1"/><mustSupport value="true"/></element><element id="Composition.section:slicePrenatal.entry:sliceNumberOtherOutcomes"><path value="Composition.section.entry"/><sliceName value="sliceNumberOtherOutcomes"/><max value="1"/><mustSupport value="true"/></element><element id="Composition.section:slicePrenatal.entry:sliceDateLastOtherOutcome"><path value="Composition.section.entry"/><sliceName value="sliceDateLastOtherOutcome"/><max value="1"/><mustSupport value="true"/></element><element id="Composition.section:slicePrenatal.entry:slicePregnancyRiskFactors"><path value="Composition.section.entry"/><sliceName value="slicePregnancyRiskFactors"/><mustSupport value="true"/></element><element id="Composition.section:slicePrenatal.entry:sliceNumberPreviousCesareans"><path value="Composition.section.entry"/><sliceName value="sliceNumberPreviousCesareans"/><max value="1"/><mustSupport value="true"/></element><element id="Composition.section:slicePrenatal.entry:sliceInfectionsDuringPregnancy"><path value="Composition.section.entry"/><sliceName value="sliceInfectionsDuringPregnancy"/><type><code value="Reference"/><targetProfile value="http://hl7.org/fhir/us/bfdr/StructureDefinition/Condition-infection-present-during-pregnancy"/></type><mustSupport value="true"/></element><element id="Composition.section:slicePrenatal.entry:sliceObstetricProcedures"><path value="Composition.section.entry"/><sliceName value="sliceObstetricProcedures"/><type><code value="Reference"/><targetProfile value="http://hl7.org/fhir/us/bfdr/StructureDefinition/Procedure-obstetric"/></type><mustSupport value="true"/></element><element id="Composition.section:sliceLaborAndDelivery"><path value="Composition.section"/><sliceName value="sliceLaborAndDelivery"/><short value="Labor and Delivery section on the Facility Worksheet"/><definition value="This section contains items from the Labor and Delivery section on the Facility Worksheet for the Live Birth Certificate. Sources: Labor and delivery records, mother's medical records."/></element><element id="Composition.section:sliceLaborAndDelivery.entry"><path value="Composition.section.entry"/><slicing><discriminator><type value="value"/><path value="url"/></discriminator><rules value="open"/></slicing></element><element id="Composition.section:slicePrenatal.entry:slicePrincipalSourceOfPayment"><path value="Composition.section.entry"/><sliceName value="slicePrincipalSourceOfPayment"/><max value="1"/><mustSupport value="true"/></element><element id="Composition.section:slicePrenatal.entry:sliceMotherTransferred"><path value="Composition.section.entry"/><sliceName value="sliceMotherTransferred"/><max value="1"/><type><code value="Reference"/><targetProfile value="http://hl7.org/fhir/us/bfdr/StructureDefinition/Observation-maternal-transfer"/></type><mustSupport value="true"/></element><element id="Composition.section:slicePrenatal.entry:sliceMothersWeightAtDelivery"><path value="Composition.section.entry"/><sliceName value="sliceMothersWeightAtDelivery"/><max value="1"/><mustSupport value="true"/></element><element id="Composition.section:slicePrenatal.entry:sliceCharacteristicsLaborDelivery"><path value="Composition.section.entry"/><sliceName value="sliceCharacteristicsLaborDelivery"/><type><code value="Reference"/><targetProfile value="http://hl7.org/fhir/us/bfdr/StructureDefinition/Observation-characteristic-of-labor-and-delivery"/></type><mustSupport value="true"/></element><element id="Composition.section:slicePrenatal.entry:sliceFetalPresentation"><path value="Composition.section.entry"/><sliceName value="sliceFetalPresentation"/><max value="1"/><type><code value="Reference"/><targetProfile value="http://hl7.org/fhir/us/bfdr/StructureDefinition/Condition-fetal-presentation"/></type><mustSupport value="true"/></element><element id="Composition.section:slicePrenatal.entry:sliceFinalRouteMethodDelivery"><path value="Composition.section.entry"/><sliceName value="sliceFinalRouteMethodDelivery"/><max value="1"/><type><code value="Reference"/><targetProfile value="http://hl7.org/fhir/us/bfdr/StructureDefinition/Procedure-final-route-method-delivery"/></type><mustSupport value="true"/></element><element id="Composition.section:slicePrenatal.entry:sliceTrialLaborAttempted"><path value="Composition.section.entry"/><sliceName value="sliceTrialLaborAttempted"/><max value="1"/><type><code value="Reference"/><targetProfile value="http://hl7.org/fhir/us/bfdr/StructureDefinition/Observation-labor-trial-attempted"/></type><mustSupport value="true"/></element><element id="Composition.section:slicePrenatal.entry:sliceMaternalMorbidity"><path value="Composition.section.entry"/><sliceName value="sliceMaternalMorbidity"/><type><code value="Reference"/><targetProfile value="http://hl7.org/fhir/us/bfdr/StructureDefinition/Condition-maternal-morbidity"/></type><mustSupport value="true"/></element><element id="Composition.section:sliceNewborn"><path value="Composition.section"/><sliceName value="sliceNewborn"/><short value="Newborn section on the Facility Worksheet"/><definition value="This section contains items from the Newborn section on the Facility Worksheet for the Live Birth Certificate. Sources: Labor and delivery records, newborn's medical records, mother's medical records."/></element><element id="Composition.section:sliceNewborn.entry"><path value="Composition.section.entry"/><slicing><discriminator><type value="value"/><path value="url"/></discriminator><rules value="open"/></slicing></element><element id="Composition.section:sliceNewborn.entry:sliceBirthWeight"><path value="Composition.section.entry"/><sliceName value="sliceBirthWeight"/><max value="1"/><mustSupport value="true"/></element><element id="Composition.section:sliceNewborn.entry:sliceGestationEstimate"><path value="Composition.section.entry"/><sliceName value="sliceGestationEstimate"/><max value="1"/><mustSupport value="true"/></element><element id="Composition.section:sliceNewborn.entry:sliceAPGARScore"><path value="Composition.section.entry"/><sliceName value="sliceAPGARScore"/><max value="1"/><mustSupport value="true"/></element><element id="Composition.section:sliceNewborn.entry:slicePlurality"><path value="Composition.section.entry"/><sliceName value="slicePlurality"/><max value="1"/><mustSupport value="true"/></element><element id="Composition.section:sliceNewborn.entry:sliceBirthOrder"><path value="Composition.section.entry"/><sliceName value="sliceBirthOrder"/><max value="1"/><mustSupport value="true"/></element><element id="Composition.section:sliceNewborn.entry:sliceNumberInfantsBornAlive"><path value="Composition.section.entry"/><sliceName value="sliceNumberInfantsBornAlive"/><max value="1"/><mustSupport value="true"/></element><element id="Composition.section:sliceNewborn.entry:sliceAbnormalConditionsNewborn"><path value="Composition.section.entry"/><sliceName value="sliceAbnormalConditionsNewborn"/><type><code value="Reference"/><targetProfile value="http://hl7.org/fhir/us/bfdr/StructureDefinition/Condition-abnormal-condition-of-newborn"/></type><mustSupport value="true"/></element><element id="Composition.section:sliceNewborn.entry:sliceCengenitalAnomaliesNewborn"><path value="Composition.section.entry"/><sliceName value="sliceCengenitalAnomaliesNewborn"/><type><code value="Reference"/><targetProfile value="http://hl7.org/fhir/us/bfdr/StructureDefinition/Condition-congenital-anomaly-of-newborn"/></type><mustSupport value="true"/></element><element id="Composition.section:sliceNewborn.entry:sliceInfantTransferred"><path value="Composition.section.entry"/><sliceName value="sliceInfantTransferred"/><max value="1"/><mustSupport value="true"/></element><element id="Composition.section:sliceNewborn.entry:sliceInfantBreastfedAtDischarge"><path value="Composition.section.entry"/><sliceName value="sliceInfantBreastfedAtDischarge"/><max value="1"/><type><code value="Reference"/><targetProfile value="http://hl7.org/fhir/us/bfdr/StructureDefinition/Observation-infant-breastfed-at-discharge"/></type><mustSupport value="true"/></element></differential></StructureDefinition></resource><search><mode value="include"/></search></entry><entry><fullUrl value="https://hapi4.lantanagroup.com/fhir/StructureDefinition/Encounter-Maternity"/><resource><StructureDefinition><id value="Encounter-Maternity"/><meta><versionId value="18"/><lastUpdated value="2020-08-03T22:20:01.425+00:00"/><source value="#MUTW3QhnR2ctoGwj"/><security><system value="https://trifolia-fhir.lantanagroup.com/security"/><code value="everyone^read"/></security><security><system value="https://trifolia-fhir.lantanagroup.com/security"/><code value="everyone^write"/></security></meta><url value="http://hl7.org/fhir/us/bfdr/StructureDefinition/Encounter-Maternity"/><version value="1.0.0"/><name value="EncounterMaternity"/><title value="Encounter - Maternity"/><status value="active"/><publisher value="HL7 Public Health Work Group"/><description value="This Encounter profile represents the mother's maternity encounter. After the child is born, an Encounter record will be created for the child (Encounter-Birth) and will reference this encounter using the partOf property."/><jurisdiction><coding><system value="urn:iso:std:iso:3166"/><code value="US"/><display value="United States of America"/></coding></jurisdiction><fhirVersion value="4.0.1"/><kind value="resource"/><abstract value="false"/><type value="Encounter"/><baseDefinition value="http://hl7.org/fhir/us/core/StructureDefinition/us-core-encounter"/><derivation value="constraint"/><differential><element id="Encounter"><path value="Encounter"/></element><element id="Encounter.subject"><path value="Encounter.subject"/><min value="1"/><max value="1"/><type><code value="Reference"/><targetProfile value="http://hl7.org/fhir/us/fhir-vr-common-ig/StructureDefinition/Patient-Mother"/></type><mustSupport value="true"/></element><element id="Encounter.hospitalization"><path value="Encounter.hospitalization"/></element><element id="Encounter.hospitalization.origin"><path value="Encounter.hospitalization.origin"/><short value="If mother transferred, facility transferred from"/><type><code value="Reference"/><targetProfile value="http://hl7.org/fhir/us/core/StructureDefinition/us-core-location"/></type><mustSupport value="true"/></element><element id="Encounter.hospitalization.admitSource"><path value="Encounter.hospitalization.admitSource"/><short value="If mother transferred for maternal or fetal indications for delivery, set to &quot;hosp-trans&quot;"/><mustSupport value="true"/></element></differential></StructureDefinition></resource><search><mode value="include"/></search></entry><entry><fullUrl value="https://hapi4.lantanagroup.com/fhir/StructureDefinition/Condition-fetal-presentation"/><resource><StructureDefinition><id value="Condition-fetal-presentation"/><meta><versionId value="18"/><lastUpdated value="2020-07-21T23:30:11.946+00:00"/><source value="#w3DeIrGPxYy6yjcS"/><security><system value="https://trifolia-fhir.lantanagroup.com/security"/><code value="everyone^read"/></security><security><system value="https://trifolia-fhir.lantanagroup.com/security"/><code value="everyone^write"/></security></meta><extension url="https://trifolia-fhir.lantanagroup.com/StructureDefinition/extension-sd-intro"><valueMarkdown value="This concept is mapped to:&#xA;* Item **46c. Fetal presentation at birth** in the *[U.S. Standard Certificate of Live Birth (rev. 2003)](https://www.cdc.gov/nchs/data/dvs/birth11-03final-ACC.pdf)*&#xA;* Item **38c. Fetal presentation at delivery** in the *[U.S. Standard Report of Fetal Death (rev. 2003)](https://www.cdc.gov/nchs/data/dvs/FDEATH11-03finalACC.pdf)*&#xA;&#xA;This profile is based on and further constrains the [US Core Condition](http://hl7.org/fhir/us/core/StructureDefinition/us-core-condition) profile."/></extension><url value="http://hl7.org/fhir/us/bfdr/StructureDefinition/Condition-fetal-presentation"/><version value="1.0.0"/><name value="ConditionFetalPresentation"/><title value="Condition - Fetal Presentation at Birth/Delivery"/><status value="active"/><experimental value="false"/><publisher value="HL7 Public Health Work Group"/><description value="This Condition profile represents the fetal presentation (orientation within the mother's womb) of a fetus prior to delivery/birth."/><jurisdiction><coding><system value="urn:iso:std:iso:3166"/><code value="US"/><display value="United States of America"/></coding></jurisdiction><fhirVersion value="4.0.1"/><mapping><identity value="live-birth-certificate"/><uri value="https://www.cdc.gov/nchs/data/dvs/birth11-03final-ACC.pdf"/><name value="U.S. Standard Certificate of Live Birth (rev. 2003)"/><comment value="This table maps profile elements to U.S. Standard Certificate of Live Birth (rev. 2003)"/></mapping><mapping><identity value="fetal-death-report"/><uri value="https://www.cdc.gov/nchs/data/dvs/FDEATH11-03finalACC.pdf"/><name value="U.S. Standard Report of Fetal Death (rev. 2003)"/><comment value="This table maps profile elements to  U.S. Standard Report of Fetal Death (rev. 2003)"/></mapping><kind value="resource"/><abstract value="false"/><type value="Condition"/><baseDefinition value="http://hl7.org/fhir/us/core/StructureDefinition/us-core-condition"/><derivation value="constraint"/><differential><element id="Condition"><path value="Condition"/></element><element id="Condition.code"><path value="Condition.code"/><short value="Fetal presentation at birth/delivery"/><definition value="The presentation (orientation within the mother's womb) that a fetus may be in prior to delivery/birth."/><binding><strength value="extensible"/><valueSet value="https://phinvads.cdc.gov/vads/ViewValueSet.action?oid=2.16.840.1.114222.4.11.7113"/></binding><mapping><identity value="live-birth-certificate"/><map value="46c. Fetal presentation at birth"/></mapping><mapping><identity value="fetal-death-report"/><map value="38c. Fetal presentation at delivery"/></mapping></element></differential></StructureDefinition></resource><search><mode value="include"/></search></entry><entry><fullUrl value="https://hapi4.lantanagroup.com/fhir/Observation/observation-labor-trial-attempted-baby-everybaby"/><resource><Observation><id value="observation-labor-trial-attempted-baby-everybaby"/><meta><versionId value="1"/><lastUpdated value="2020-07-20T06:59:29.103+00:00"/><source value="#t98c2gCV4fgySMFo"/><profile value="http://hl7.org/fhir/us/bfdr/StructureDefinition/Observation-labor-trial-attempted"/><security><system value="https://trifolia-fhir.lantanagroup.com/security"/><code value="everyone^read"/></security><security><system value="https://trifolia-fhir.lantanagroup.com/security"/><code value="everyone^write"/></security></meta><status value="final"/><code><coding><system value="http://loinc.org"/><code value="73760-1"/><display value="If cesarean, a trial of labor was attempted [US Standard Certificate of Live Birth]"/></coding><text value="If cesarean, a trial of labor was attempted [US Standard Certificate of Live Birth]"/></code><subject><reference value="Patient/patient-newborn-baby-everybaby"/><display value="Baby Everybaby"/></subject><focus><reference value="Patient/patient-mother-eve-everywoman"/><display value="Eve Everywoman"/></focus><issued value="2020-06-09T14:34:30-07:00"/><valueBoolean value="true"/></Observation></resource><search><mode value="include"/></search></entry><entry><fullUrl value="https://hapi4.lantanagroup.com/fhir/Observation/observation-date-of-first-prenatal-care-visit-eve-everywoman"/><resource><Observation><id value="observation-date-of-first-prenatal-care-visit-eve-everywoman"/><meta><versionId value="2"/><lastUpdated value="2020-07-11T02:13:06.026+00:00"/><source value="#wSlMuAFgHKsyudgv"/><profile value="http://hl7.org/fhir/us/bfdr/StructureDefinition/Observation-date-of-first-prenatal-care-visit"/><security><system value="https://trifolia-fhir.lantanagroup.com/security"/><code value="everyone^read"/></security><security><system value="https://trifolia-fhir.lantanagroup.com/security"/><code value="everyone^write"/></security></meta><status value="final"/><code><coding><system value="http://loinc.org"/><code value="69044-6"/><display value="Date first prenatal visit"/></coding><text value="Date of first prenatal care visit"/></code><subject><reference value="Patient/patient-newborn-baby-everybaby"/><display value="Baby Everybaby"/></subject><focus><reference value="Patient/patient-mother-eve-everywoman"/><display value="Eve Everywoman"/></focus><issued value="2020-06-08T14:35:00-07:00"/><valueDateTime value="2019-10-09"/></Observation></resource><search><mode value="include"/></search></entry><entry><fullUrl value="https://hapi4.lantanagroup.com/fhir/Procedure/procedure-final-route-method-delivery-cesarean"/><resource><Procedure><id value="procedure-final-route-method-delivery-cesarean"/><meta><versionId value="1"/><lastUpdated value="2020-07-20T07:03:02.242+00:00"/><source value="#tAnzj2jKP1emuMVT"/><profile value="http://hl7.org/fhir/us/bfdr/StructureDefinition/Procedure-final-route-method-delivery"/><security><system value="https://trifolia-fhir.lantanagroup.com/security"/><code value="everyone^read"/></security><security><system value="https://trifolia-fhir.lantanagroup.com/security"/><code value="everyone^write"/></security></meta><status value="completed"/><code><coding><system value="http://snomed.info/sct"/><code value="11466000"/><display value="Cesarean section"/></coding><text value="Cesarean section"/></code><subject><reference value="Patient/patient-mother-eve-everywoman"/><display value="Eve Everywoman"/></subject><performedPeriod><start value="2020-06-07T08:30:00-07:00"/><end value="2020-06-07T08:45:00-07:00"/></performedPeriod><reasonReference><reference value="Observation/observation-labor-trial-attempted-baby-everybaby"/><display value="Labor trial attempted - true"/></reasonReference></Procedure></resource><search><mode value="include"/></search></entry><entry><fullUrl value="https://hapi4.lantanagroup.com/fhir/StructureDefinition/Composition-provider-mothers-fetal-death-report"/><resource><StructureDefinition><id value="Composition-provider-mothers-fetal-death-report"/><meta><versionId value="3"/><lastUpdated value="2020-08-03T22:22:22.498+00:00"/><source value="#9D9RAMl6JoYB2t6A"/><security><system value="https://trifolia-fhir.lantanagroup.com/security"/><code value="everyone^read"/></security><security><system value="https://trifolia-fhir.lantanagroup.com/security"/><code value="everyone^write"/></security></meta><url value="http://hl7.org/fhir/us/bfdr/StructureDefinition/Composition-provider-mothers-fetal-death-report"/><version value="1.0.0"/><name value="CompositionProviderMothersFetalDeathReport"/><title value="Composition - Provider Supplied Mother's Fetal Death Report"/><status value="active"/><experimental value="false"/><publisher value="HL7 Public Health Work Group"/><description value="This Composition profile defines constraints to address the use case in which information collected from the mother, as primarily defined using the Patient's Worksheet, is managed independently for communication to the jurisdictional Vital Records Office."/><jurisdiction><coding><system value="urn:iso:std:iso:3166"/><code value="US"/><display value="United States of America"/></coding></jurisdiction><fhirVersion value="4.0.1"/><kind value="resource"/><abstract value="false"/><type value="Composition"/><baseDefinition value="http://hl7.org/fhir/StructureDefinition/Composition"/><derivation value="constraint"/><differential><element id="Composition"><path value="Composition"/></element><element id="Composition.subject"><path value="Composition.subject"/><min value="1"/><type><code value="Reference"/><targetProfile value="http://hl7.org/fhir/us/fhir-vr-common-ig/StructureDefinition/Patient-decedant-fetus"/></type></element><element id="Composition.encounter"><path value="Composition.encounter"/><type><code value="Reference"/><targetProfile value="http://hl7.org/fhir/us/bfdr/StructureDefinition/Encounter-Maternity"/></type><mustSupport value="true"/></element><element id="Composition.section"><path value="Composition.section"/><slicing><discriminator><type value="value"/><path value="code"/></discriminator><rules value="open"/></slicing></element><element id="Composition.section:slice2191"><path value="Composition.section"/><sliceName value="slice2191"/></element></differential></StructureDefinition></resource><search><mode value="include"/></search></entry><entry><fullUrl value="https://hapi4.lantanagroup.com/fhir/StructureDefinition/Observation-infant-breastfed-at-discharge"/><resource><StructureDefinition><id value="Observation-infant-breastfed-at-discharge"/><meta><versionId value="8"/><lastUpdated value="2020-07-30T06:42:40.115+00:00"/><source value="#UVLNyMwN4cXdvH7v"/><security><system value="https://trifolia-fhir.lantanagroup.com/security"/><code value="everyone^read"/></security><security><system value="https://trifolia-fhir.lantanagroup.com/security"/><code value="everyone^write"/></security></meta><extension url="https://trifolia-fhir.lantanagroup.com/StructureDefinition/extension-sd-intro"><valueMarkdown value="This concept is mapped to:&#xA;* Item **58. Is the infant being breastfed at discharge?** in the *[U.S. Standard Certificate of Live Birth (rev. 2003)](https://www.cdc.gov/nchs/data/dvs/birth11-03final-ACC.pdf)*&#xA;&#xA;***Reason for not basing on US Core - no suitable Observation profile.***"/></extension><url value="http://hl7.org/fhir/us/bfdr/StructureDefinition/Observation-infant-breastfed-at-discharge"/><version value="1.0.0"/><name value="ObservationInfantBreastfedAtDischarge"/><title value="Observation - Infant Breastfed at Discharge"/><status value="active"/><experimental value="false"/><publisher value="HL7 Public Health Work Group"/><description value="This profile represents whether or not the infant was being breastfed at discharge."/><jurisdiction><coding><system value="urn:iso:std:iso:3166"/><code value="US"/><display value="United States of America"/></coding></jurisdiction><fhirVersion value="4.0.1"/><kind value="resource"/><abstract value="false"/><type value="Observation"/><baseDefinition value="http://hl7.org/fhir/StructureDefinition/Observation"/><derivation value="constraint"/><differential><element id="Observation"><path value="Observation"/></element><element id="Observation.code"><path value="Observation.code"/><short value="Infant is being breastfed at discharge [US Standard Certificate of Live Birth]"/><min value="1"/><max value="1"/><patternCodeableConcept><coding><system value="http://loinc.org"/><code value="73756-9"/></coding></patternCodeableConcept><mustSupport value="true"/></element><element id="Observation.value[x]"><path value="Observation.value[x]"/><short value="Is the infant being breastfed at discharge?"/><min value="1"/><max value="1"/><type><code value="boolean"/></type><mustSupport value="true"/></element></differential></StructureDefinition></resource><search><mode value="include"/></search></entry><entry><fullUrl value="https://hapi4.lantanagroup.com/fhir/StructureDefinition/Composition-provider-facility-fetal-death-report"/><resource><StructureDefinition><id value="Composition-provider-facility-fetal-death-report"/><meta><versionId value="3"/><lastUpdated value="2020-08-03T22:22:22.647+00:00"/><source value="#d4V4iSVvOZ4bqiqE"/><security><system value="https://trifolia-fhir.lantanagroup.com/security"/><code value="everyone^read"/></security><security><system value="https://trifolia-fhir.lantanagroup.com/security"/><code value="everyone^write"/></security></meta><url value="http://hl7.org/fhir/us/bfdr/StructureDefinition/Composition-provider-facility-fetal-death-report"/><version value="1.0.0"/><name value="CompositionProviderFacilityFetalDeathReport"/><title value="Composition - Provider Supplied Facility Fetal Death Report"/><status value="active"/><experimental value="false"/><publisher value="HL7 Public Health Work Group"/><description value="This Composition profile defines constraints to address the use case in which information for labor and delivery and relevant information for the fetus collected by healthcare provider staff, as primarily defined using the Facility Worksheet, is managed independently for communication to the jurisdictional Vital Records Office. "/><jurisdiction><coding><system value="urn:iso:std:iso:3166"/><code value="US"/><display value="United States of America"/></coding></jurisdiction><fhirVersion value="4.0.1"/><kind value="resource"/><abstract value="false"/><type value="Composition"/><baseDefinition value="http://hl7.org/fhir/StructureDefinition/Composition"/><derivation value="constraint"/><differential><element id="Composition"><path value="Composition"/></element><element id="Composition.subject"><path value="Composition.subject"/><min value="1"/><type><code value="Reference"/><targetProfile value="http://hl7.org/fhir/us/fhir-vr-common-ig/StructureDefinition/Patient-decedant-fetus"/></type></element><element id="Composition.encounter"><path value="Composition.encounter"/><type><code value="Reference"/><targetProfile value="http://hl7.org/fhir/us/bfdr/StructureDefinition/Encounter-Maternity"/></type><mustSupport value="true"/></element><element id="Composition.section"><path value="Composition.section"/><slicing><discriminator><type value="value"/><path value="code"/></discriminator><rules value="open"/></slicing></element><element id="Composition.section:slice2191"><path value="Composition.section"/><sliceName value="slice2191"/></element></differential></StructureDefinition></resource><search><mode value="include"/></search></entry><entry><fullUrl value="https://hapi4.lantanagroup.com/fhir/StructureDefinition/Observation-maternal-transfer"/><resource><StructureDefinition><id value="Observation-maternal-transfer"/><meta><versionId value="6"/><lastUpdated value="2020-07-30T06:43:47.082+00:00"/><source value="#2fc7JCjhjvUsqIlq"/><security><system value="https://trifolia-fhir.lantanagroup.com/security"/><code value="everyone^read"/></security><security><system value="https://trifolia-fhir.lantanagroup.com/security"/><code value="everyone^write"/></security></meta><extension url="https://trifolia-fhir.lantanagroup.com/StructureDefinition/extension-sd-intro"><valueMarkdown value="**NOTE** Might not need this - Encounter has transfer information that might be sufficient. **TODO**&#xA;&#xA;***Reason for not basing on US Core - no suitable Observation profile.***"/></extension><url value="http://hl7.org/fhir/us/bfdr/StructureDefinition/Observation-maternal-transfer"/><version value="1.0.0"/><name value="ObservationMaternalTransfer"/><title value="Observation - Maternal Transfer"/><status value="active"/><experimental value="false"/><publisher value="HL7 Public Health Work Group"/><description value="This profile represents whether or not the mother had been transferred to the delivery facility from another facility based on maternal medical or fetal indications."/><jurisdiction><coding><system value="urn:iso:std:iso:3166"/><code value="US"/><display value="United States of America"/></coding></jurisdiction><fhirVersion value="4.0.1"/><kind value="resource"/><abstract value="false"/><type value="Observation"/><baseDefinition value="http://hl7.org/fhir/StructureDefinition/Observation"/><derivation value="constraint"/><differential><element id="Observation"><path value="Observation"/></element><element id="Observation.code"><path value="Observation.code"/><short value="Mother was transferred for maternal medical or fetal indications for delivery"/><min value="1"/><max value="1"/><patternCodeableConcept><coding><system value="http://loinc.org"/><code value="73763-5"/></coding></patternCodeableConcept><mustSupport value="true"/></element><element id="Observation.value[x]"><path value="Observation.value[x]"/><min value="1"/><max value="1"/><type><code value="boolean"/></type><mustSupport value="true"/></element></differential></StructureDefinition></resource><search><mode value="include"/></search></entry><entry><fullUrl value="https://hapi4.lantanagroup.com/fhir/Observation/observation-infant-breastfed-at-discharge-baby-everybaby"/><resource><Observation><id value="observation-infant-breastfed-at-discharge-baby-everybaby"/><meta><versionId value="2"/><lastUpdated value="2020-07-11T06:03:53.799+00:00"/><source value="#Rj72A8e6AyF4HiXg"/><profile value="http://hl7.org/fhir/us/bfdr/StructureDefinition/Observation-infant-breastfed-at-discharge"/><security><system value="https://trifolia-fhir.lantanagroup.com/security"/><code value="everyone^read"/></security><security><system value="https://trifolia-fhir.lantanagroup.com/security"/><code value="everyone^write"/></security></meta><status value="final"/><code><coding><system value="http://loinc.org"/><code value="73756-9"/><display value="Infant is being breastfed at discharge [US Standard Certificate of Live Birth]"/></coding><text value="Infant is being breastfed at discharge [US Standard Certificate of Live Birth]"/></code><subject><reference value="Patient/patient-newborn-baby-everybaby"/><display value="Baby Everybaby"/></subject><issued value="2020-06-09T10:00:00-07:00"/><valueBoolean value="true"/></Observation></resource><search><mode value="include"/></search></entry><entry><fullUrl value="https://hapi4.lantanagroup.com/fhir/StructureDefinition/Condition-maternal-morbidity"/><resource><StructureDefinition><id value="Condition-maternal-morbidity"/><meta><versionId value="3"/><lastUpdated value="2020-07-20T07:13:24.371+00:00"/><source value="#yrkXAaeVmjedFOjU"/><security><system value="https://trifolia-fhir.lantanagroup.com/security"/><code value="everyone^read"/></security><security><system value="https://trifolia-fhir.lantanagroup.com/security"/><code value="everyone^write"/></security></meta><extension url="https://trifolia-fhir.lantanagroup.com/StructureDefinition/extension-sd-intro"><valueMarkdown value="This concept is mapped to:&#xA;* Item **47. Maternal Morbidity (Complications associated with labor and delivery)** in the *[U.S. Standard Certificate of Live Birth (rev. 2003)](https://www.cdc.gov/nchs/data/dvs/birth11-03final-ACC.pdf)*&#xA;* Item **39. Maternal Morbidity (Complications associated with labor and delivery)** in the *[U.S. Standard Report of Fetal Death (rev. 2003)](https://www.cdc.gov/nchs/data/dvs/FDEATH11-03finalACC.pdf)*"/></extension><url value="http://hl7.org/fhir/us/bfdr/StructureDefinition/Condition-maternal-morbidity"/><version value="1.0.0"/><name value="ConditionMaternalMorbidity"/><title value="Condition - Maternal Morbidity"/><status value="active"/><experimental value="false"/><publisher value="HL7 Public Health Work Group"/><description value="This Condition profile represents whether the mother suffered from one or more of a list of recognized maternal morbidities during the labor and delivery process."/><jurisdiction><coding><system value="urn:iso:std:iso:3166"/><code value="US"/><display value="United States of America"/></coding></jurisdiction><fhirVersion value="4.0.1"/><kind value="resource"/><abstract value="false"/><type value="Condition"/><baseDefinition value="http://hl7.org/fhir/us/core/StructureDefinition/us-core-condition"/><derivation value="constraint"/><differential><element id="Condition"><path value="Condition"/><short value="Information on whether the mother suffered from one or more of a list of recognized maternal morbidities during the labor and delivery process"/></element><element id="Condition.code"><path value="Condition.code"/><short value="Maternal morbidity values when serious complications were experienced by the mother associated with labor and delivery"/><binding><strength value="extensible"/><valueSet value="https://phinvads.cdc.gov/vads/ViewValueSet.action?oid=2.16.840.1.114222.4.11.7119"/></binding></element></differential></StructureDefinition></resource><search><mode value="include"/></search></entry><entry><fullUrl value="https://hapi4.lantanagroup.com/fhir/StructureDefinition/Encounter-Birth"/><resource><StructureDefinition><id value="Encounter-Birth"/><meta><versionId value="34"/><lastUpdated value="2020-08-03T22:12:29.721+00:00"/><source value="#gvmhaxqPQIfA8XSH"/><security><system value="https://trifolia-fhir.lantanagroup.com/security"/><code value="everyone^read"/></security><security><system value="https://trifolia-fhir.lantanagroup.com/security"/><code value="everyone^write"/></security></meta><url value="http://hl7.org/fhir/us/bfdr/StructureDefinition/Encounter-Birth"/><version value="1.0.0"/><name value="EncounterBirth"/><title value="Encounter - Birth"/><status value="active"/><publisher value="HL7 Public Health Work Group"/><description value="This Encounter profile represents the child's birth encounter. This Encounter can reference the mother's maternity encounter using the partOf data element."/><jurisdiction><coding><system value="urn:iso:std:iso:3166"/><code value="US"/><display value="United States of America"/></coding></jurisdiction><fhirVersion value="4.0.1"/><kind value="resource"/><abstract value="false"/><type value="Encounter"/><baseDefinition value="http://hl7.org/fhir/us/core/StructureDefinition/us-core-encounter"/><derivation value="constraint"/><differential><element id="Encounter"><path value="Encounter"/></element><element id="Encounter.subject"><path value="Encounter.subject"/><min value="1"/><max value="1"/><type><code value="Reference"/><targetProfile value="http://hl7.org/fhir/us/fhir-vr-common-ig/StructureDefinition/Patient-child"/></type><mustSupport value="true"/></element><element id="Encounter.hospitalization"><path value="Encounter.hospitalization"/></element><element id="Encounter.hospitalization.admitSource"><path value="Encounter.hospitalization.admitSource"/><short value="If infant transferred within 24 hours of delivery, set to &quot;hosp-trans&quot;"/><mustSupport value="true"/></element><element id="Encounter.hospitalization.destination"><path value="Encounter.hospitalization.destination"/><short value="If infant transferred, facility transferred to"/><type><code value="Reference"/><targetProfile value="http://hl7.org/fhir/us/core/StructureDefinition/us-core-location"/></type><mustSupport value="true"/></element><element id="Encounter.partOf"><path value="Encounter.partOf"/><type><code value="Reference"/><targetProfile value="http://hl7.org/fhir/us/bfdr/StructureDefinition/Encounter-Maternity"/></type><mustSupport value="true"/></element></differential></StructureDefinition></resource><search><mode value="include"/></search></entry><entry><fullUrl value="https://hapi4.lantanagroup.com/fhir/Patient/patient-newborn-baby-everybaby"/><resource><Patient><id value="patient-newborn-baby-everybaby"/><meta><versionId value="4"/><lastUpdated value="2020-08-03T22:12:29.824+00:00"/><source value="#xNPMWTwx6QX9qEyX"/><profile value="http://hl7.org/fhir/us/fhir-vr-common-ig/StructureDefinition/Patient-child"/><security><system value="https://trifolia-fhir.lantanagroup.com/security"/><code value="everyone^read"/></security><security><system value="https://trifolia-fhir.lantanagroup.com/security"/><code value="everyone^write"/></security></meta><text><status value="generated"/><div xmlns="http://www.w3.org/1999/xhtml"><div class="hapiHeaderText">Baby B 
                
                <b>EVERYBABY </b></div><table class="hapiPropertyTable"><tbody><tr><td>Identifier</td><td>9932702</td></tr><tr><td>Date of birth</td><td><span>07 June 2020</span></td></tr></tbody></table></div></text><extension url="http://hl7.org/fhir/us/core/StructureDefinition/us-core-race"><extension url="ombCategory"><valueCoding><system value="urn:oid:2.16.840.1.113883.6.238"/><code value="2106-3"/><display value="White"/></valueCoding></extension><extension url="text"><valueString value="White"/></extension></extension><extension url="http://hl7.org/fhir/us/core/StructureDefinition/us-core-ethnicity"><extension url="ombCategory"><valueCoding><system value="urn:oid:2.16.840.1.113883.6.238"/><code value="2186-5"/><display value="Not Hispanic or Latino"/></valueCoding></extension><extension url="text"><valueString value="Not Hispanic or Latino"/></extension></extension><extension url="http://hl7.org/fhir/us/core/StructureDefinition/us-core-birthsex"><valueCode value="F"/></extension><identifier><use value="usual"/><type><coding><system value="http://terminology.hl7.org/CodeSystem/v2-0203"/><code value="MR"/><display value="Medical Record Number"/></coding></type><system value="http://hospital.smarthealthit.org"/><value value="9932702"/></identifier><active value="true"/><name><family value="Everybaby"/><given value="Baby"/><given value="B"/></name><gender value="female"/><birthDate value="2020-06-07"><extension url="http://hl7.org/fhir/StructureDefinition/patient-birthTime"><valueDateTime value="2020-06-07T10:00:00-07:00"/></extension></birthDate></Patient></resource><search><mode value="include"/></search></entry><entry><fullUrl value="https://hapi4.lantanagroup.com/fhir/Condition/condition-infection-present-during-pregnancy-eve-everywoman"/><resource><Condition><id value="condition-infection-present-during-pregnancy-eve-everywoman"/><meta><versionId value="2"/><lastUpdated value="2020-07-12T02:07:08.091+00:00"/><source value="#g4tKgealicKXPbgW"/><profile value="http://hl7.org/fhir/us/bfdr/StructureDefinition/Condition-infection-present-during-pregnancy"/><security><system value="https://trifolia-fhir.lantanagroup.com/security"/><code value="everyone^read"/></security><security><system value="https://trifolia-fhir.lantanagroup.com/security"/><code value="everyone^write"/></security></meta><category><coding><system value="http://loinc.org"/><code value="72519-2"/><display value="Infections present AndOr treated during this pregnancy for live birth [US Standard Certificate of Live Birth]"/></coding></category><code><coding><system value="http://snomed.info/sct"/><code value="66071002"/><display value="Viral hepatitis type B (disorder)"/></coding><text value="Viral hepatitis type B (disorder)"/></code><subject><reference value="Patient/patient-mother-eve-everywoman"/><display value="Eve Everywoman"/></subject></Condition></resource><search><mode value="include"/></search></entry><entry><fullUrl value="https://hapi4.lantanagroup.com/fhir/Composition/composition-birth-certificate-baby-everybaby"/><resource><Composition><id value="composition-birth-certificate-baby-everybaby"/><meta><versionId value="3"/><lastUpdated value="2020-07-20T10:24:04.774+00:00"/><source value="#hKc7qs1Xx67tiIxd"/><profile value="http://hl7.org/fhir/us/bfdr/StructureDefinition/Composition-jurisdiction-live-birth-report"/><security><system value="https://trifolia-fhir.lantanagroup.com/security"/><code value="everyone^read"/></security><security><system value="https://trifolia-fhir.lantanagroup.com/security"/><code value="everyone^write"/></security></meta><identifier><value value="c03eab8c-11e8-4d0c-ad2a-b385395e27de"/></identifier><status value="final"/><type><coding><system value="http://loinc.org"/><code value="68998-4"/><display value="U.S. standard certificate of live birth - 2003 revision"/></coding></type><subject><reference value="Patient/patient-newborn-baby-everybaby"/><display value="Baby Everybaby"/></subject><encounter><reference value="Encounter/encounter-birth-baby-everybaby"/><display value="Birth Encounter - Baby Everybaby"/></encounter><date value="2020-06-07"/><author><reference value="PractitionerRole/practitionerrole-henry-seven"/><display value="Henry Seven, MD"/></author><title value="U.S. standard certificate of live birth - 2003 revision"/></Composition></resource><search><mode value="include"/></search></entry><entry><fullUrl value="https://hapi4.lantanagroup.com/fhir/Encounter/encounter-birth-baby-everybaby"/><resource><Encounter><id value="encounter-birth-baby-everybaby"/><meta><versionId value="3"/><lastUpdated value="2020-07-11T05:55:53.746+00:00"/><source value="#lc2N4wGsWMK8nPDz"/><profile value="http://hl7.org/fhir/us/bfdr/StructureDefinition/Encounter-Birth"/><security><system value="https://trifolia-fhir.lantanagroup.com/security"/><code value="everyone^read"/></security><security><system value="https://trifolia-fhir.lantanagroup.com/security"/><code value="everyone^write"/></security></meta><identifier><system value="http://hospital.smarthealthit.org"/><value value="9937012"/></identifier><status value="finished"/><class><system value="http://terminology.hl7.org/CodeSystem/v3-ActCode"/><code value="IMP"/><display value="inpatient encounter"/></class><type><coding><system value="http://www.ama-assn.org/go/cpt"/><code value="99234"/></coding><text value="Under Observation or Inpatient Care Services (Including Admission and Discharge Services)"/></type><subject><reference value="Patient/patient-newborn-baby-everybaby"/><display value="Baby Everybaby"/></subject><participant><type><coding><system value="http://terminology.hl7.org/CodeSystem/v3-ParticipationType"/><code value="ATND"/><display value="attender"/></coding></type><individual><reference value="Practitioner/practitioner-us-core-henry-seven"/><display value="Henry Seven, MD"/></individual></participant><period><start value="2020-06-07T10:00:00-07:00"/><end value="2020-06-09T10:00:00-07:00"/></period><location><location><reference value="Location/location-salem-medical-center"/><display value="Clinic Bldg A, Salem Medical Center, 4646 Brown Rd, Salem, MA 02368"/></location></location><serviceProvider><reference value="Organization/organization-salem-medical-center"/><display value="Salem Medical Center, 22222 Health Authority Drive, Ann Arbor MI, 99999"/></serviceProvider><partOf><reference value="Encounter/encounter-maternity-eve-everywoman"/><display value="Maternity Encounter - Eve Everywoman"/></partOf></Encounter></resource><search><mode value="include"/></search></entry><entry><fullUrl value="https://hapi4.lantanagroup.com/fhir/Encounter/encounter-maternity-eve-everywoman"/><resource><Encounter><id value="encounter-maternity-eve-everywoman"/><meta><versionId value="4"/><lastUpdated value="2020-07-12T02:10:08.411+00:00"/><source value="#Z5hMGHQCgl2zGuxo"/><profile value="http://hl7.org/fhir/us/bfdr/StructureDefinition/Encounter-Maternity"/><security><system value="https://trifolia-fhir.lantanagroup.com/security"/><code value="everyone^read"/></security><security><system value="https://trifolia-fhir.lantanagroup.com/security"/><code value="everyone^write"/></security></meta><identifier><system value="http://hospital.smarthealthit.org"/><value value="9937012"/></identifier><status value="finished"/><class><system value="http://terminology.hl7.org/CodeSystem/v3-ActCode"/><code value="IMP"/><display value="inpatient encounter"/></class><type><coding><system value="http://www.ama-assn.org/go/cpt"/><code value="99234"/></coding><text value="Under Observation or Inpatient Care Services (Including Admission and Discharge Services)"/></type><subject><reference value="Patient/patient-mother-eve-everywoman"/><display value="Eve Everywoman"/></subject><participant><type><coding><system value="http://terminology.hl7.org/CodeSystem/v3-ParticipationType"/><code value="ATND"/><display value="attender"/></coding></type><individual><reference value="Practitioner/practitioner-us-core-henry-seven"/><display value="Henry Seven, MD"/></individual></participant><period><start value="2020-06-07T01:00:00-07:00"/><end value="2020-06-09T10:00:00-07:00"/></period><hospitalization><admitSource><coding><system value="http://terminology.hl7.org/CodeSystem/admit-source"/><code value="hosp-trans"/><display value="Transferred from other hospital"/></coding><text value="The Patient has been transferred from another hospital for this encounter."/></admitSource></hospitalization><location><location><reference value="Location/location-salem-medical-center"/><display value="Clinic Bldg A, Salem Medical Center, 4646 Brown Rd, Salem, MA 02368"/></location></location><serviceProvider><reference value="Organization/organization-salem-medical-center"/><display value="Salem Medical Center, 22222 Health Authority Drive, Ann Arbor MI, 99999"/></serviceProvider></Encounter></resource><search><mode value="include"/></search></entry><entry><fullUrl value="https://hapi4.lantanagroup.com/fhir/StructureDefinition/Extension-relatedperson-mother"/><resource><StructureDefinition><id value="Extension-relatedperson-mother"/><meta><versionId value="6"/><lastUpdated value="2020-07-20T08:22:33.095+00:00"/><source value="#eThVmbg0eKFSfdlp"/><security><system value="https://trifolia-fhir.lantanagroup.com/security"/><code value="everyone^read"/></security><security><system value="https://trifolia-fhir.lantanagroup.com/security"/><code value="everyone^write"/></security></meta><url value="http://hl7.org/fhir/us/bfdr/StructureDefinition/Extension-relatedperson-mother"/><name value="ExtensionRelatedPersonMother"/><title value="Extension - RelatedPerson Mother"/><status value="active"/><experimental value="false"/><publisher value="HL7 Public Health Work Group"/><jurisdiction><coding><system value="urn:iso:std:iso:3166"/><code value="US"/><display value="United States of America"/></coding></jurisdiction><fhirVersion value="4.0.1"/><kind value="complex-type"/><abstract value="false"/><context><type value="element"/><expression value="Composition"/></context><type value="Extension"/><baseDefinition value="http://hl7.org/fhir/StructureDefinition/Extension"/><derivation value="constraint"/><differential><element id="Extension"><path value="Extension"/></element><element id="Extension.url"><path value="Extension.url"/><fixedUri value="http://hl7.org/fhir/us/bfdr/StructureDefinition/Extension-relatedperson-mother"/></element><element id="Extension.value[x]:valueReference"><path value="Extension.valueReference"/><sliceName value="valueReference"/><type><code value="Reference"/><targetProfile value="http://hl7.org/fhir/us/bfdr/StructureDefinition/RelatedPerson-Mother"/></type></element></differential></StructureDefinition></resource><search><mode value="include"/></search></entry><entry><fullUrl value="https://hapi4.lantanagroup.com/fhir/Location/location-general-city-hospital"/><resource><Location><id value="location-general-city-hospital"/><meta><versionId value="1"/><lastUpdated value="2020-07-11T02:42:19.721+00:00"/><source value="#lYJpQjYDAmQdeZ6S"/><profile value="http://hl7.org/fhir/us/core/StructureDefinition/us-core-location"/><security><system value="https://trifolia-fhir.lantanagroup.com/security"/><code value="everyone^read"/></security><security><system value="https://trifolia-fhir.lantanagroup.com/security"/><code value="everyone^write"/></security></meta><status value="active"/><name value="General City Hospital"/><type><coding><system value="http://terminology.hl7.org/CodeSystem/v3-RoleCode"/><code value="HOSP"/><display value="Hospital"/></coding></type></Location></resource><search><mode value="include"/></search></entry><entry><fullUrl value="https://hapi4.lantanagroup.com/fhir/StructureDefinition/Condition-abnormal-condition-of-newborn"/><resource><StructureDefinition><id value="Condition-abnormal-condition-of-newborn"/><meta><versionId value="3"/><lastUpdated value="2020-08-03T22:12:29.790+00:00"/><source value="#WSLbKgBlkRN46BsE"/><security><system value="https://trifolia-fhir.lantanagroup.com/security"/><code value="everyone^read"/></security><security><system value="https://trifolia-fhir.lantanagroup.com/security"/><code value="everyone^write"/></security></meta><url value="http://hl7.org/fhir/us/bfdr/StructureDefinition/Condition-abnormal-condition-of-newborn"/><version value="1.0.0"/><name value="ConditionAbnormalConditionOfNewborn"/><title value="Condition - Abnormal Condition of Newborn"/><status value="active"/><experimental value="false"/><publisher value="HL7 Public Health Work Group"/><description value="This Condition profile represents information about one or more disorders or significant morbidities experienced by the newborn."/><jurisdiction><coding><system value="urn:iso:std:iso:3166"/><code value="US"/><display value="United States of America"/></coding></jurisdiction><fhirVersion value="4.0.1"/><kind value="resource"/><abstract value="false"/><type value="Condition"/><baseDefinition value="http://hl7.org/fhir/us/core/StructureDefinition/us-core-condition"/><derivation value="constraint"/><differential><element id="Condition"><path value="Condition"/><short value="Information about one or more disorders or significant morbidities experienced by the newborn"/></element><element id="Condition.code"><path value="Condition.code"/><short value="Specific disorders or significant morbidity experienced by the newborn infant"/><binding><strength value="extensible"/><valueSet value="https://phinvads.cdc.gov/vads/ViewValueSet.action?oid=2.16.840.1.114222.4.11.7121"/></binding></element><element id="Condition.subject"><path value="Condition.subject"/><type><code value="Reference"/><targetProfile value="http://hl7.org/fhir/us/fhir-vr-common-ig/StructureDefinition/Patient-child"/></type></element></differential></StructureDefinition></resource><search><mode value="include"/></search></entry><entry><fullUrl value="https://hapi4.lantanagroup.com/fhir/Organization/organization-salem-medical-center"/><resource><Organization><id value="organization-salem-medical-center"/><meta><versionId value="1"/><lastUpdated value="2020-07-10T05:16:13.850+00:00"/><source value="#K0ORJ1BShlrYKtnz"/><profile value="http://hl7.org/fhir/us/core/StructureDefinition/us-core-organization"/><security><system value="https://trifolia-fhir.lantanagroup.com/security"/><code value="everyone^read"/></security><security><system value="https://trifolia-fhir.lantanagroup.com/security"/><code value="everyone^write"/></security></meta><identifier><system value="http://hl7.org.fhir/sid/us-npi"/><value value="55555555"/></identifier><active value="true"/><type><coding><system value="http://terminology.hl7.org/CodeSystem/v3-RoleCode"/><code value="OF"/><display value="Outpatient facility"/></coding></type><name value="Salem Medical Center"/><telecom><system value="phone"/><value value="+1-555-555-1111"/></telecom><telecom><system value="email"/><value value="mail@salemmedicalcenter.com"/></telecom><address><line value="22222 Health Authority Drive"/><city value="Ann Arbor"/><state value="MI"/><postalCode value="99999"/></address></Organization></resource><search><mode value="include"/></search></entry></Bundle>