<?xml version="1.0" encoding="UTF-8"?>

<Bundle xmlns="http://hl7.org/fhir">
  <id value="bundle-provider-fetal-death-not-named"/>
  <meta>
    <profile value="http://hl7.org/fhir/us/bfdr/StructureDefinition/Bundle-document-fetal-death-report"/>
  </meta>
  <identifier>
    <extension url="http://hl7.org/fhir/us/vr-common-library/StructureDefinition/CertificateNumber">
      <valueString value="9876"/>
    </extension>
    <extension url="http://hl7.org/fhir/us/vr-common-library/StructureDefinition/AuxiliaryStateIdentifier1">
      <valueString value="11111-11111"/>
    </extension>
    <system value="http://hl7.org/fhir/us/vr-common-library/CodeSystem/codesystem-ije-vr"/>
    <value value="2019NJ009876"/>
  </identifier>
  <type value="document"/>
  <timestamp value="2019-02-11T02:05:44.434Z"/>
  <entry>
    <fullUrl value="http://www.example.org/fhir/Composition/composition-provider-fetal-death-not-named"/>
    <resource>
      <Composition>
        <id value="composition-provider-fetal-death-not-named"/>
        <meta>
          <profile value="http://hl7.org/fhir/us/bfdr/StructureDefinition/Composition-provider-fetal-death-report"/>
        </meta>
        <text>
          <status value="generated"/><div xmlns="http://www.w3.org/1999/xhtml"><p><b>Generated Narrative: Composition</b><a name="composition-provider-fetal-death-not-named"> </a></p><div style="display: inline-block; background-color: #d9e0e7; padding: 6px; margin: 4px; border: 1px solid #8da1b4; border-radius: 5px; line-height: 60%"><p style="margin-bottom: 0px">Resource Composition &quot;composition-provider-fetal-death-not-named&quot; </p><p style="margin-bottom: 0px">Profile: <a href="StructureDefinition-Composition-provider-fetal-death-report.html">Composition - Provider Fetal Death Report</a></p></div><p><b>status</b>: final</p><p><b>type</b>: U.S. standard report of fetal death - 2003 revision <span style="background: LightGoldenRodYellow; margin: 4px; border: 1px solid khaki"> (<a href="https://loinc.org/">LOINC</a>#69045-3)</span></p><p><b>encounter</b>: <a href="#Encounter_encounter-maternity-carmen-teresa-lee">See above (Encounter/encounter-maternity-carmen-teresa-lee)</a></p><p><b>date</b>: 2019-01-09</p><p><b>author</b>: <a href="#Practitioner_practitioner-vital-records-jessica-leung">See above (Practitioner/practitioner-vital-records-jessica-leung)</a></p><p><b>title</b>: Provider fetal death report Document</p></div>
        </text>
        <status value="final"/>
        <type>
          <coding>
            <system value="http://loinc.org"/>
            <code value="69045-3"/>
            <display value="U.S. standard report of fetal death - 2003 revision"/>
          </coding>
        </type>
        <subject>
          <reference value="Patient/patient-decedent-fetus-not-named"/>
        </subject>
        <encounter>
          <reference value="Encounter/encounter-maternity-carmen-teresa-lee"/>
        </encounter>
        <date value="2019-01-09"/>
        <author>
          <reference value="Practitioner/practitioner-vital-records-jessica-leung"/>
        </author>
        <title value="Provider fetal death report Document"/>
        <section>
          <code>
            <coding>
              <system value="http://loinc.org"/>
              <code value="57073-9"/>
            </coding>
          </code>
          <focus>
            <reference value="Patient/patient-mother-carmen-teresa-lee"/>
          </focus>
          <entry>
            <reference value="Observation/observation-date-of-first-prenatal-care-visit-carmen-teresa-lee"/>
          </entry>
          <entry>
            <reference value="Observation/observation-last-menstrual-period-carmen-teresa-lee"/>
          </entry>
          <entry>
            <reference value="Observation/observation-number-births-now-living-carmen-teresa-lee"/>
          </entry>
          <entry>
            <reference value="Observation/observation-number-births-now-dead-carmen-teresa-lee"/>
          </entry>
          <entry>
            <reference value="Observation/observation-date-of-last-live-birth-carmen-teresa-lee"/>
          </entry>
          <entry>
            <reference value="Observation/observation-mother-height-carmen-teresa-lee"/>
          </entry>
          <entry>
            <reference value="Observation/observation-mother-prepregnancy-weight-carmen-teresa-lee"/>
          </entry>
          <entry>
            <reference value="Observation/observation-mother-received-wic-food-carmen-teresa-lee"/>
          </entry>
          <entry>
            <reference value="Observation/observation-cig-smoking-pregnancy-1-carmen-teresa-lee"/>
          </entry>
          <entry>
            <reference value="Observation/observation-cig-smoking-pregnancy-2-carmen-teresa-lee"/>
          </entry>
          <entry>
            <reference value="Observation/observation-cig-smoking-pregnancy-3-carmen-teresa-lee"/>
          </entry>
          <entry>
            <reference value="Observation/observation-cig-smoking-pregnancy-4-carmen-teresa-lee"/>
          </entry>
        </section>
        <section>
          <code>
            <coding>
              <system value="http://loinc.org"/>
              <code value="55752-0"/>
            </coding>
          </code>
          <focus>
            <reference value="Patient/patient-mother-carmen-teresa-lee"/>
          </focus>
          <entry>
            <reference value="Observation/observation-number-previous-cesareans-carmen-teresa-lee"/>
          </entry>
          <entry>
            <reference value="Observation/observation-fetal-presentation-not-named"/>
          </entry>
          <entry>
            <reference value="Procedure/procedure-final-route-method-delivery-not-named"/>
          </entry>
          <entry>
            <reference value="Condition/condition-gestational-diabetes-carmen-teresa-lee"/>
          </entry>
        </section>
        <section>
          <code>
            <coding>
              <system value="http://loinc.org"/>
              <code value="76400-1"/>
            </coding>
          </code>
          <entry>
            <reference value="Observation/observation-birth-weight-not-named"/>
          </entry>
          <entry>
            <reference value="Observation/observation-gestational-age-at-delivery-not-named"/>
          </entry>
          <entry>
            <reference value="Condition/condition-fetal-death-cause-or-condition-not-named"/>
          </entry>
          <entry>
            <reference value="Condition/condition-fetal-death-other-significant-cause-not-named"/>
          </entry>
          <entry>
            <reference value="Observation/observation-fetal-death-time-point-not-named"/>
          </entry>
          <entry>
            <reference value="Observation/observation-autopsy-performed-not-named"/>
          </entry>
          <entry>
            <reference value="Observation/observation-histological-placental-exam-performed-not-named"/>
          </entry>
          <entry>
            <reference value="Observation/observation-autopsy-histological-exam-results-used-not-named"/>
          </entry>
          <entry>
            <reference value="Observation/observation-number-deaths-this-delivery-carmen-teresa-lee"/>
          </entry>
        </section>
        <section>
          <code>
            <coding>
              <system value="http://loinc.org"/>
              <code value="92014-0"/>
            </coding>
          </code>
          <focus>
            <reference value="Patient/patient-mother-carmen-teresa-lee"/>
          </focus>
          <entry>
            <reference value="Observation/observation-parent-education-level-carmen-teresa-lee"/>
          </entry>
          <entry>
            <reference value="Observation/observation-present-job-carmen-teresa-lee"/>
          </entry>
          <entry>
            <reference value="Observation/observation-input-race-and-ethnicity-carmen-teresa-lee"/>
          </entry>
        </section>
        <section>
          <code>
            <coding>
              <system value="http://loinc.org"/>
              <code value="92013-2"/>
            </coding>
          </code>
          <focus>
            <reference value="RelatedPerson/relatedperson-father-natural-tom-yan-lee"/>
          </focus>
          <entry>
            <reference value="Observation/observation-present-job-tom-yan-lee"/>
          </entry>
        </section>
        <section>
          <title value="Patient's QuestionnaireResponse Section"/>
          <code>
            <coding>
              <system value="http://loinc.org"/>
              <code value="74465-6"/>
            </coding>
          </code>
          <focus>
            <reference value="Patient/patient-mother-carmen-teresa-lee"/>
          </focus>
          <entry>
            <reference value="QuestionnaireResponse/QuestionnaireResponse-patients-fetal-death-carmen-lee"/>
          </entry>
        </section>
      </Composition>
    </resource>
  </entry>
  <entry>
    <fullUrl value="http://www.example.org/fhir/Patient/patient-decedent-fetus-not-named"/>
    <resource>
      <Patient>
        <id value="patient-decedent-fetus-not-named"/>
        <meta>
          <profile value="http://hl7.org/fhir/us/bfdr/StructureDefinition/Patient-decedent-fetus"/>
        </meta>
        <text>
          <status value="extensions"/><div xmlns="http://www.w3.org/1999/xhtml"><p><b>Generated Narrative: Patient</b><a name="patient-decedent-fetus-not-named"> </a></p><div style="display: inline-block; background-color: #d9e0e7; padding: 6px; margin: 4px; border: 1px solid #8da1b4; border-radius: 5px; line-height: 60%"><p style="margin-bottom: 0px">Resource Patient &quot;patient-decedent-fetus-not-named&quot; </p><p style="margin-bottom: 0px">Profile: <a href="StructureDefinition-Patient-decedent-fetus.html">Patient - Decedent Fetus</a></p></div><p><b>US Core Birth Sex Extension</b>: F</p><p><b>Patient Birth Place</b>: Ann Arbor MI 48103 </p><blockquote><p><b>Reported Parent Age At Delivery Vital Records</b></p><blockquote><p><b>url</b></p><code>reportedAge</code></blockquote><p><b>value</b>: 34 a<span style="background: LightGoldenRodYellow"> (Details: UCUM code a = 'a')</span></p><blockquote><p><b>url</b></p><code>motherOrFather</code></blockquote><p><b>value</b>: mother <span style="background: LightGoldenRodYellow; margin: 4px; border: 1px solid khaki"> (<a href="http://terminology.hl7.org/6.0.2/CodeSystem-v3-RoleCode.html">RoleCode</a>#MTH)</span></p></blockquote><blockquote><p><b>Reported Parent Age At Delivery Vital Records</b></p><blockquote><p><b>url</b></p><code>reportedAge</code></blockquote><p><b>value</b>: 35 a<span style="background: LightGoldenRodYellow"> (Details: UCUM code a = 'a')</span></p><blockquote><p><b>url</b></p><code>motherOrFather</code></blockquote><p><b>value</b>: father <span style="background: LightGoldenRodYellow; margin: 4px; border: 1px solid khaki"> (<a href="http://terminology.hl7.org/6.0.2/CodeSystem-v3-RoleCode.html">RoleCode</a>#FTH)</span></p></blockquote><p><b>identifier</b>: Medical Record Number: 9932702 (use: USUAL)</p><p><b>name</b>: null (OFFICIAL)</p><p><b>gender</b>: female</p><p><b>birthDate</b>: 2019-01-09</p><p><b>deceased</b>: true</p><p><b>multipleBirth</b>: 3</p></div>
        </text>
        <extension url="http://hl7.org/fhir/us/core/StructureDefinition/us-core-birthsex">
          <valueCode value="F"/>
        </extension>
        <extension url="http://hl7.org/fhir/StructureDefinition/patient-birthPlace">
          <valueAddress>
            <city value="Ann Arbor"/>
            <state value="MI"/>
            <postalCode value="48103"/>
          </valueAddress>
        </extension>
        <extension url="http://hl7.org/fhir/us/vr-common-library/StructureDefinition/Extension-reported-parent-age-at-delivery-vr">
          <extension url="reportedAge">
            <valueQuantity>
              <value value="34"/>
              <system value="http://unitsofmeasure.org"/>
              <code value="a"/>
            </valueQuantity>
          </extension>
          <extension url="motherOrFather">
            <valueCodeableConcept>
              <coding>
                <system value="http://terminology.hl7.org/CodeSystem/v3-RoleCode"/>
                <code value="MTH"/>
                <display value="mother"/>
              </coding>
            </valueCodeableConcept>
          </extension>
        </extension>
        <extension url="http://hl7.org/fhir/us/vr-common-library/StructureDefinition/Extension-reported-parent-age-at-delivery-vr">
          <extension url="reportedAge">
            <valueQuantity>
              <value value="35"/>
              <system value="http://unitsofmeasure.org"/>
              <code value="a"/>
            </valueQuantity>
          </extension>
          <extension url="motherOrFather">
            <valueCodeableConcept>
              <coding>
                <system value="http://terminology.hl7.org/CodeSystem/v3-RoleCode"/>
                <code value="FTH"/>
                <display value="father"/>
              </coding>
            </valueCodeableConcept>
          </extension>
        </extension>
        <identifier>
          <use value="usual"/>
          <type>
            <coding>
              <system value="http://terminology.hl7.org/CodeSystem/v2-0203"/>
              <code value="MR"/>
              <display value="Medical Record Number"/>
            </coding>
          </type>
          <system value="http://hospital.smarthealthit.org"/>
          <value value="9932702"/>
        </identifier>
        <name>
          <use value="official"/>
          <family>
            <extension url="http://hl7.org/fhir/StructureDefinition/data-absent-reason">
              <valueCode value="not-applicable"/>
            </extension>
          </family>
        </name>
        <gender value="female"/>
        <birthDate value="2019-01-09">
          <extension url="http://hl7.org/fhir/StructureDefinition/patient-birthTime">
            <valueDateTime value="2019-01-09T18:23:00-07:00"/>
          </extension>
        </birthDate>
        <deceasedBoolean value="true">
          <extension url="http://hl7.org/fhir/us/vr-common-library/StructureDefinition/Extension-patient-fetal-death-vr">
            <valueBoolean value="true"/>
          </extension>
        </deceasedBoolean>
        <multipleBirthInteger value="3"/>
      </Patient>
    </resource>
  </entry>
  <entry>
    <fullUrl value="http://www.example.org/fhir/Encounter/encounter-maternity-carmen-teresa-lee"/>
    <resource>
      <Encounter>
        <id value="encounter-maternity-carmen-teresa-lee"/>
        <meta>
          <profile value="http://hl7.org/fhir/us/bfdr/StructureDefinition/Encounter-maternity"/>
        </meta>
        <text>
          <status value="extensions"/><div xmlns="http://www.w3.org/1999/xhtml"><p><b>Generated Narrative: Encounter</b><a name="encounter-maternity-carmen-teresa-lee"> </a></p><div style="display: inline-block; background-color: #d9e0e7; padding: 6px; margin: 4px; border: 1px solid #8da1b4; border-radius: 5px; line-height: 60%"><p style="margin-bottom: 0px">Resource Encounter &quot;encounter-maternity-carmen-teresa-lee&quot; </p><p style="margin-bottom: 0px">Profile: <a href="StructureDefinition-Encounter-maternity.html">Encounter - Maternity</a></p></div><p><b>Extension Parental Role</b>: mother <span style="background: LightGoldenRodYellow; margin: 4px; border: 1px solid khaki"> (<a href="http://terminology.hl7.org/6.0.2/CodeSystem-v3-RoleCode.html">RoleCode</a>#MTH)</span></p><p><b>identifier</b>: id: 8937015</p><p><b>status</b>: finished</p><p><b>class</b>: inpatient encounter (Details: http://terminology.hl7.org/CodeSystem/v3-ActCode code IMP = 'inpatient encounter', stated as 'inpatient encounter')</p><p><b>type</b>: Under Observation or Inpatient Care Services (Including Admission and Discharge Services) <span style="background: LightGoldenRodYellow; margin: 4px; border: 1px solid khaki"> (<a href="http://terminology.hl7.org/5.0.0/CodeSystem-CPT.html">Current Procedural Terminology (CPT®)</a>#99234)</span></p><p><b>subject</b>: <a href="#Patient_patient-mother-carmen-teresa-lee">See above (Patient/patient-mother-carmen-teresa-lee: Patient - Mother (Carmen Teresa Lee))</a></p><h3>Participants</h3><table class="grid"><tr><td style="display: none">-</td><td><b>Type</b></td><td><b>Individual</b></td></tr><tr><td style="display: none">*</td><td>Birth attendant [Extended Identifier] <span style="background: LightGoldenRodYellow; margin: 4px; border: 1px solid khaki"> (<a href="https://loinc.org/">LOINC</a>#87286-1)</span></td><td><a href="#Practitioner_practitioner-vital-records-janet-seito">See above (Practitioner/practitioner-vital-records-janet-seito: Practitioner - Vital Records (Janet Seito, DO))</a></td></tr></table><p><b>period</b>: 2019-01-08 10:00:00-0700 --&gt; 2019-01-09 17:00:00-0700</p><h3>Locations</h3><table class="grid"><tr><td style="display: none">-</td><td><b>Location</b></td><td><b>PhysicalType</b></td></tr><tr><td style="display: none">*</td><td><a href="#Location_location-south-hospital">See above (Location/location-south-hospital: Location - US Core Location (South Hospital))</a></td><td>Hospital <span style="background: LightGoldenRodYellow; margin: 4px; border: 1px solid khaki"> (<a href="https://browser.ihtsdotools.org/">SNOMED CT</a>#22232009)</span></td></tr></table><p><b>serviceProvider</b>: <a href="#Organization_organization-south-hospital">See above (Organization/organization-south-hospital: Organization - US Core Organization (South Hospital Organization))</a></p></div>
        </text>
        <extension url="http://hl7.org/fhir/us/bfdr/StructureDefinition/Extension-role">
          <valueCodeableConcept>
            <coding>
              <system value="http://terminology.hl7.org/CodeSystem/v3-RoleCode"/>
              <code value="MTH"/>
            </coding>
          </valueCodeableConcept>
        </extension>
        <identifier>
          <system value="http://hospital.smarthealthit.org"/>
          <value value="8937015"/>
        </identifier>
        <status value="finished"/>
        <class>
          <system value="http://terminology.hl7.org/CodeSystem/v3-ActCode"/>
          <code value="IMP"/>
          <display value="inpatient encounter"/>
        </class>
        <type>
          <coding>
            <system value="http://www.ama-assn.org/go/cpt"/>
            <code value="99234"/>
          </coding>
          <text value="Under Observation or Inpatient Care Services (Including Admission and Discharge Services)"/>
        </type>
        <subject>
          <reference value="Patient/patient-mother-carmen-teresa-lee"/>
          <display value="Patient - Mother (Carmen Teresa Lee)"/>
        </subject>
        <participant>
          <type>
            <coding>
              <system value="http://loinc.org"/>
              <code value="87286-1"/>
              <display value="Birth attendant [Extended Identifier]"/>
            </coding>
          </type>
          <individual>
            <reference value="Practitioner/practitioner-vital-records-janet-seito"/>
            <display value="Practitioner - Vital Records (Janet Seito, DO)"/>
          </individual>
        </participant>
        <period>
          <start value="2019-01-08T10:00:00-07:00"/>
          <end value="2019-01-09T17:00:00-07:00"/>
        </period>
        <location>
          <location>
            <reference value="Location/location-south-hospital"/>
            <display value="Location - US Core Location (South Hospital)"/>
          </location>
          <physicalType>
            <coding>
              <system value="http://snomed.info/sct"/>
              <code value="22232009"/>
              <display value="Hospital"/>
            </coding>
          </physicalType>
        </location>
        <serviceProvider>
          <reference value="Organization/organization-south-hospital"/>
          <display value="Organization - US Core Organization (South Hospital Organization)"/>
        </serviceProvider>
      </Encounter>
    </resource>
  </entry>
  <entry>
    <fullUrl value="http://www.example.org/fhir/Patient/patient-mother-carmen-teresa-lee"/>
    <resource>
      <Patient>
        <id value="patient-mother-carmen-teresa-lee"/>
        <meta>
          <profile value="http://hl7.org/fhir/us/vr-common-library/StructureDefinition/Patient-mother-vr"/>
        </meta>
        <text>
          <status value="extensions"/><div xmlns="http://www.w3.org/1999/xhtml"><p><b>Generated Narrative: Patient</b><a name="patient-mother-carmen-teresa-lee"> </a></p><div style="display: inline-block; background-color: #d9e0e7; padding: 6px; margin: 4px; border: 1px solid #8da1b4; border-radius: 5px; line-height: 60%"><p style="margin-bottom: 0px">Resource Patient &quot;patient-mother-carmen-teresa-lee&quot; </p><p style="margin-bottom: 0px">Profile: <a href="https://build.fhir.org/ig/HL7/vr-common-library//StructureDefinition-Patient-mother-vr.html">Patient - Mother Vital Records</a></p></div><blockquote><p><b>US Core Race Extension</b></p><blockquote><p><b>url</b></p><code>ombCategory</code></blockquote><p><b>value</b>: Black or African American (Details: urn:oid:2.16.840.1.113883.6.238 code 2054-5 = 'Black or African American', stated as 'Black or African American')</p><blockquote><p><b>url</b></p><code>text</code></blockquote><p><b>value</b>: Black or African America</p></blockquote><blockquote><p><b>US Core Ethnicity Extension</b></p><blockquote><p><b>url</b></p><code>ombCategory</code></blockquote><p><b>value</b>: Hispanic or Latino (Details: urn:oid:2.16.840.1.113883.6.238 code 2135-2 = 'Hispanic or Latino', stated as 'Hispanic or Latino')</p><blockquote><p><b>url</b></p><code>text</code></blockquote><p><b>value</b>: Hispanic or Latino</p></blockquote><p><b>US Core Birth Sex Extension</b>: F</p><p><b>Patient Birth Place</b>: PR </p><p><b>identifier</b>: Medical Record Number: 9992702 (use: USUAL)</p><p><b>name</b>: Carmen Teresa Lee (OFFICIAL), Carmen Teresa Santos (MAIDEN)</p><p><b>gender</b>: female</p><p><b>birthDate</b>: 1986-02-15</p><p><b>address</b>: 3670 Miller Road Ann Arbor MI 48103 US (HOME)</p><h3>Links</h3><table class="grid"><tr><td style="display: none">-</td><td><b>Other</b></td><td><b>Type</b></td></tr><tr><td style="display: none">*</td><td><a href="#RelatedPerson_relatedperson-mother-carmen-teresa-lee">See above (RelatedPerson/relatedperson-mother-carmen-teresa-lee)</a></td><td>seealso</td></tr></table></div>
        </text>
        <extension url="http://hl7.org/fhir/us/core/StructureDefinition/us-core-race">
          <extension url="ombCategory">
            <valueCoding>
              <system value="urn:oid:2.16.840.1.113883.6.238"/>
              <code value="2054-5"/>
              <display value="Black or African American"/>
            </valueCoding>
          </extension>
          <extension url="text">
            <valueString value="Black or African America"/>
          </extension>
        </extension>
        <extension url="http://hl7.org/fhir/us/core/StructureDefinition/us-core-ethnicity">
          <extension url="ombCategory">
            <valueCoding>
              <system value="urn:oid:2.16.840.1.113883.6.238"/>
              <code value="2135-2"/>
              <display value="Hispanic or Latino"/>
            </valueCoding>
          </extension>
          <extension url="text">
            <valueString value="Hispanic or Latino"/>
          </extension>
        </extension>
        <extension url="http://hl7.org/fhir/us/core/StructureDefinition/us-core-birthsex">
          <valueCode value="F"/>
        </extension>
        <extension url="http://hl7.org/fhir/StructureDefinition/patient-birthPlace">
          <valueAddress>
            <state value="PR"/>
          </valueAddress>
        </extension>
        <identifier>
          <use value="usual"/>
          <type>
            <coding>
              <system value="http://terminology.hl7.org/CodeSystem/v2-0203"/>
              <code value="MR"/>
              <display value="Medical Record Number"/>
            </coding>
          </type>
          <system value="http://hospital.smarthealthit.org"/>
          <value value="9992702"/>
        </identifier>
        <name>
          <use value="official"/>
          <family value="Lee"/>
          <given value="Carmen"/>
          <given value="Teresa"/>
        </name>
        <name>
          <use value="maiden"/>
          <family value="Santos"/>
          <given value="Carmen"/>
          <given value="Teresa"/>
        </name>
        <gender value="female"/>
        <birthDate value="1986-02-15"/>
        <address>
          <extension url="http://hl7.org/fhir/us/vr-common-library/StructureDefinition/Extension-within-city-limits-indicator-vr">
            <valueCoding>
              <system value="http://terminology.hl7.org/CodeSystem/v2-0136"/>
              <code value="N"/>
              <display value="No"/>
            </valueCoding>
          </extension>
          <use value="home"/>
          <line value="3670 Miller Road"/>
          <city value="Ann Arbor"/>
          <state value="MI"/>
          <postalCode value="48103"/>
          <country value="US"/>
        </address>
        <link>
          <other>
            <reference value="RelatedPerson/relatedperson-mother-carmen-teresa-lee"/>
          </other>
          <type value="seealso"/>
        </link>
      </Patient>
    </resource>
  </entry>
  <entry>
    <fullUrl value="http://www.example.org/fhir/Observation/observation-date-of-first-prenatal-care-visit-carmen-teresa-lee"/>
    <resource>
      <Observation>
        <id value="observation-date-of-first-prenatal-care-visit-carmen-teresa-lee"/>
        <meta>
          <profile value="http://hl7.org/fhir/us/bfdr/StructureDefinition/Observation-date-of-first-prenatal-care-visit"/>
        </meta>
        <text>
          <status value="generated"/><div xmlns="http://www.w3.org/1999/xhtml"><p><b>Generated Narrative: Observation</b><a name="observation-date-of-first-prenatal-care-visit-carmen-teresa-lee"> </a></p><div style="display: inline-block; background-color: #d9e0e7; padding: 6px; margin: 4px; border: 1px solid #8da1b4; border-radius: 5px; line-height: 60%"><p style="margin-bottom: 0px">Resource Observation &quot;observation-date-of-first-prenatal-care-visit-carmen-teresa-lee&quot; </p><p style="margin-bottom: 0px">Profile: <a href="StructureDefinition-Observation-date-of-first-prenatal-care-visit.html">Observation - Date of First Prenatal Care Visit</a></p></div><p><b>status</b>: final</p><p><b>code</b>: Date first prenatal visit <span style="background: LightGoldenRodYellow; margin: 4px; border: 1px solid khaki"> (<a href="https://loinc.org/">LOINC</a>#69044-6)</span></p><p><b>subject</b>: <a href="#Patient_patient-mother-carmen-teresa-lee">See above (Patient/patient-mother-carmen-teresa-lee: Patient - Mother (Carmen Teresa Lee))</a></p><p><b>focus</b>: <a href="#Patient_patient-decedent-fetus-not-named">See above (Patient/patient-decedent-fetus-not-named: Patient - Decedent Fetus (Fetus Not Named))</a></p><p><b>effective</b>: 2019-12-02</p><p><b>performer</b>: <a href="#Practitioner_practitioner-vital-records-janet-seito">See above (Practitioner/practitioner-vital-records-janet-seito)</a></p><p><b>value</b>: 2018-05-18</p></div>
        </text>
        <status value="final"/>
        <code>
          <coding>
            <system value="http://loinc.org"/>
            <code value="69044-6"/>
          </coding>
        </code>
        <subject>
          <reference value="Patient/patient-mother-carmen-teresa-lee"/>
          <display value="Patient - Mother (Carmen Teresa Lee)"/>
        </subject>
        <focus>
          <reference value="Patient/patient-decedent-fetus-not-named"/>
          <display value="Patient - Decedent Fetus (Fetus Not Named)"/>
        </focus>
        <effectiveDateTime value="2019-12-02"/>
        <performer>
          <reference value="Practitioner/practitioner-vital-records-janet-seito"/>
        </performer>
        <valueDateTime value="2018-05-18"/>
      </Observation>
    </resource>
  </entry>
  <entry>
    <fullUrl value="http://www.example.org/fhir/Observation/observation-last-menstrual-period-carmen-teresa-lee"/>
    <resource>
      <Observation>
        <id value="observation-last-menstrual-period-carmen-teresa-lee"/>
        <meta>
          <profile value="http://hl7.org/fhir/us/bfdr/StructureDefinition/Observation-last-menstrual-period"/>
        </meta>
        <text>
          <status value="generated"/><div xmlns="http://www.w3.org/1999/xhtml"><p><b>Generated Narrative: Observation</b><a name="observation-last-menstrual-period-carmen-teresa-lee"> </a></p><div style="display: inline-block; background-color: #d9e0e7; padding: 6px; margin: 4px; border: 1px solid #8da1b4; border-radius: 5px; line-height: 60%"><p style="margin-bottom: 0px">Resource Observation &quot;observation-last-menstrual-period-carmen-teresa-lee&quot; </p><p style="margin-bottom: 0px">Profile: <a href="StructureDefinition-Observation-last-menstrual-period.html">Observation - Last Menstrual Period</a></p></div><p><b>status</b>: final</p><p><b>code</b>: Last menstrual period start date <span style="background: LightGoldenRodYellow; margin: 4px; border: 1px solid khaki"> (<a href="https://loinc.org/">LOINC</a>#8665-2)</span></p><p><b>subject</b>: <a href="#Patient_patient-mother-carmen-teresa-lee">See above (Patient/patient-mother-carmen-teresa-lee: Patient - Mother (Carmen Teresa Lee))</a></p><p><b>effective</b>: 2018-05-02</p><p><b>performer</b>: <a href="#Practitioner_practitioner-vital-records-janet-seito">See above (Practitioner/practitioner-vital-records-janet-seito)</a></p><p><b>value</b>: 2018-04-18</p></div>
        </text>
        <status value="final"/>
        <code>
          <coding>
            <system value="http://loinc.org"/>
            <code value="8665-2"/>
            <display value="Last menstrual period start date"/>
          </coding>
          <text value="Last menstrual period start date"/>
        </code>
        <subject>
          <reference value="Patient/patient-mother-carmen-teresa-lee"/>
          <display value="Patient - Mother (Carmen Teresa Lee)"/>
        </subject>
        <effectiveDateTime value="2018-05-02"/>
        <performer>
          <reference value="Practitioner/practitioner-vital-records-janet-seito"/>
        </performer>
        <valueDateTime value="2018-04-18"/>
      </Observation>
    </resource>
  </entry>
  <entry>
    <fullUrl value="http://www.example.org/fhir/Observation/observation-number-births-now-living-carmen-teresa-lee"/>
    <resource>
      <Observation>
        <id value="observation-number-births-now-living-carmen-teresa-lee"/>
        <meta>
          <profile value="http://hl7.org/fhir/us/bfdr/StructureDefinition/Observation-number-births-now-living"/>
        </meta>
        <text>
          <status value="generated"/><div xmlns="http://www.w3.org/1999/xhtml"><p><b>Generated Narrative: Observation</b><a name="observation-number-births-now-living-carmen-teresa-lee"> </a></p><div style="display: inline-block; background-color: #d9e0e7; padding: 6px; margin: 4px; border: 1px solid #8da1b4; border-radius: 5px; line-height: 60%"><p style="margin-bottom: 0px">Resource Observation &quot;observation-number-births-now-living-carmen-teresa-lee&quot; </p><p style="margin-bottom: 0px">Profile: <a href="StructureDefinition-Observation-number-births-now-living.html">Observation - Number of Births Now Living</a></p></div><p><b>status</b>: final</p><p><b>code</b>: [#] Births.still living <span style="background: LightGoldenRodYellow; margin: 4px; border: 1px solid khaki"> (<a href="https://loinc.org/">LOINC</a>#11638-4)</span></p><p><b>subject</b>: <a href="#Patient_patient-mother-carmen-teresa-lee">See above (Patient/patient-mother-carmen-teresa-lee: Patient - Mother (Carmen Teresa Lee))</a></p><p><b>effective</b>: 2019-12-02</p><p><b>performer</b>: <a href="#Practitioner_practitioner-vital-records-janet-seito">See above (Practitioner/practitioner-vital-records-janet-seito)</a></p><p><b>value</b>: 1</p></div>
        </text>
        <status value="final"/>
        <code>
          <coding>
            <system value="http://loinc.org"/>
            <code value="11638-4"/>
            <display value="[#] Births.still living"/>
          </coding>
          <text value="[#] Births.still living"/>
        </code>
        <subject>
          <reference value="Patient/patient-mother-carmen-teresa-lee"/>
          <display value="Patient - Mother (Carmen Teresa Lee)"/>
        </subject>
        <effectiveDateTime value="2019-12-02"/>
        <performer>
          <reference value="Practitioner/practitioner-vital-records-janet-seito"/>
        </performer>
        <valueInteger value="1"/>
      </Observation>
    </resource>
  </entry>
  <entry>
    <fullUrl value="http://www.example.org/fhir/Observation/observation-number-births-now-dead-carmen-teresa-lee"/>
    <resource>
      <Observation>
        <id value="observation-number-births-now-dead-carmen-teresa-lee"/>
        <meta>
          <profile value="http://hl7.org/fhir/us/bfdr/StructureDefinition/Observation-number-births-now-dead"/>
        </meta>
        <text>
          <status value="generated"/><div xmlns="http://www.w3.org/1999/xhtml"><p><b>Generated Narrative: Observation</b><a name="observation-number-births-now-dead-carmen-teresa-lee"> </a></p><div style="display: inline-block; background-color: #d9e0e7; padding: 6px; margin: 4px; border: 1px solid #8da1b4; border-radius: 5px; line-height: 60%"><p style="margin-bottom: 0px">Resource Observation &quot;observation-number-births-now-dead-carmen-teresa-lee&quot; </p><p style="margin-bottom: 0px">Profile: <a href="StructureDefinition-Observation-number-births-now-dead.html">Observation - Number of Births Now Dead</a></p></div><p><b>status</b>: final</p><p><b>code</b>: Previous live births now dead # <span style="background: LightGoldenRodYellow; margin: 4px; border: 1px solid khaki"> (<a href="https://loinc.org/">LOINC</a>#68496-9)</span></p><p><b>subject</b>: <a href="#Patient_patient-mother-carmen-teresa-lee">See above (Patient/patient-mother-carmen-teresa-lee: Patient - Mother (Carmen Teresa Lee))</a></p><p><b>effective</b>: 2019-12-02</p><p><b>performer</b>: <a href="#Practitioner_practitioner-vital-records-janet-seito">See above (Practitioner/practitioner-vital-records-janet-seito)</a></p><p><b>value</b>: 0</p></div>
        </text>
        <status value="final"/>
        <code>
          <coding>
            <system value="http://loinc.org"/>
            <code value="68496-9"/>
            <display value="Previous live births now dead #"/>
          </coding>
          <text value="Previous live births now dead #"/>
        </code>
        <subject>
          <reference value="Patient/patient-mother-carmen-teresa-lee"/>
          <display value="Patient - Mother (Carmen Teresa Lee)"/>
        </subject>
        <effectiveDateTime value="2019-12-02"/>
        <performer>
          <reference value="Practitioner/practitioner-vital-records-janet-seito"/>
        </performer>
        <valueInteger value="0"/>
      </Observation>
    </resource>
  </entry>
  <entry>
    <fullUrl value="http://www.example.org/fhir/Observation/observation-date-of-last-live-birth-carmen-teresa-lee"/>
    <resource>
      <Observation>
        <id value="observation-date-of-last-live-birth-carmen-teresa-lee"/>
        <meta>
          <profile value="http://hl7.org/fhir/us/bfdr/StructureDefinition/Observation-date-of-last-live-birth"/>
        </meta>
        <text>
          <status value="generated"/><div xmlns="http://www.w3.org/1999/xhtml"><p><b>Generated Narrative: Observation</b><a name="observation-date-of-last-live-birth-carmen-teresa-lee"> </a></p><div style="display: inline-block; background-color: #d9e0e7; padding: 6px; margin: 4px; border: 1px solid #8da1b4; border-radius: 5px; line-height: 60%"><p style="margin-bottom: 0px">Resource Observation &quot;observation-date-of-last-live-birth-carmen-teresa-lee&quot; </p><p style="margin-bottom: 0px">Profile: <a href="StructureDefinition-Observation-date-of-last-live-birth.html">Observation - Date of Last Live Birth</a></p></div><p><b>status</b>: final</p><p><b>code</b>: Date of last live birth <span style="background: LightGoldenRodYellow; margin: 4px; border: 1px solid khaki"> (<a href="https://loinc.org/">LOINC</a>#68499-3 &quot;Date last live birth&quot;)</span></p><p><b>subject</b>: <a href="#Patient_patient-mother-carmen-teresa-lee">See above (Patient/patient-mother-carmen-teresa-lee: Patient - Mother (Carmen Teresa Lee))</a></p><p><b>effective</b>: 2019-12-02</p><p><b>performer</b>: <a href="#Practitioner_practitioner-vital-records-janet-seito">See above (Practitioner/practitioner-vital-records-janet-seito)</a></p><p><b>value</b>: 2016-01-28</p></div>
        </text>
        <status value="final"/>
        <code>
          <coding>
            <system value="http://loinc.org"/>
            <code value="68499-3"/>
            <display value="Date last live birth"/>
          </coding>
          <text value="Date of last live birth"/>
        </code>
        <subject>
          <reference value="Patient/patient-mother-carmen-teresa-lee"/>
          <display value="Patient - Mother (Carmen Teresa Lee)"/>
        </subject>
        <effectiveDateTime value="2019-12-02"/>
        <performer>
          <reference value="Practitioner/practitioner-vital-records-janet-seito"/>
        </performer>
        <valueDateTime value="2016-01-28"/>
      </Observation>
    </resource>
  </entry>
  <entry>
    <fullUrl value="http://www.example.org/fhir/Observation/observation-mother-height-carmen-teresa-lee"/>
    <resource>
      <Observation>
        <id value="observation-mother-height-carmen-teresa-lee"/>
        <meta>
          <profile value="http://hl7.org/fhir/us/bfdr/StructureDefinition/Observation-mother-height"/>
        </meta>
        <text>
          <status value="generated"/><div xmlns="http://www.w3.org/1999/xhtml"><p><b>Generated Narrative: Observation</b><a name="observation-mother-height-carmen-teresa-lee"> </a></p><div style="display: inline-block; background-color: #d9e0e7; padding: 6px; margin: 4px; border: 1px solid #8da1b4; border-radius: 5px; line-height: 60%"><p style="margin-bottom: 0px">Resource Observation &quot;observation-mother-height-carmen-teresa-lee&quot; </p><p style="margin-bottom: 0px">Profile: <a href="StructureDefinition-Observation-mother-height.html">Observation - Mother Height</a></p></div><p><b>status</b>: final</p><p><b>category</b>: Vital Signs <span style="background: LightGoldenRodYellow; margin: 4px; border: 1px solid khaki"> (<a href="http://terminology.hl7.org/6.0.2/CodeSystem-observation-category.html">Observation Category Codes</a>#vital-signs)</span></p><p><b>code</b>: Body height <span style="background: LightGoldenRodYellow; margin: 4px; border: 1px solid khaki"> (<a href="https://loinc.org/">LOINC</a>#8302-2)</span></p><p><b>subject</b>: <a href="#Patient_patient-mother-carmen-teresa-lee">See above (Patient/patient-mother-carmen-teresa-lee: Patient - Mother (Carmen Teresa Lee))</a></p><p><b>effective</b>: 2019-01-10</p><p><b>performer</b>: <a href="#Patient_patient-mother-carmen-teresa-lee">See above (Patient/patient-mother-carmen-teresa-lee)</a></p><p><b>value</b>: 65 in<span style="background: LightGoldenRodYellow"> (Details: UCUM code [in_i] = '[in_i]')</span></p></div>
        </text>
        <status value="final"/>
        <category>
          <coding>
            <system value="http://terminology.hl7.org/CodeSystem/observation-category"/>
            <code value="vital-signs"/>
          </coding>
        </category>
        <code>
          <coding>
            <system value="http://loinc.org"/>
            <code value="8302-2"/>
          </coding>
        </code>
        <subject>
          <reference value="Patient/patient-mother-carmen-teresa-lee"/>
          <display value="Patient - Mother (Carmen Teresa Lee)"/>
        </subject>
        <effectiveDateTime value="2019-01-10"/>
        <performer>
          <reference value="Patient/patient-mother-carmen-teresa-lee"/>
        </performer>
        <valueQuantity>
          <value value="65"/>
          <unit value="in"/>
          <system value="http://unitsofmeasure.org"/>
          <code value="[in_i]"/>
        </valueQuantity>
      </Observation>
    </resource>
  </entry>
  <entry>
    <fullUrl value="http://www.example.org/fhir/Observation/observation-mother-prepregnancy-weight-carmen-teresa-lee"/>
    <resource>
      <Observation>
        <id value="observation-mother-prepregnancy-weight-carmen-teresa-lee"/>
        <meta>
          <profile value="http://hl7.org/fhir/us/bfdr/StructureDefinition/Observation-mother-prepregnancy-weight"/>
        </meta>
        <text>
          <status value="generated"/><div xmlns="http://www.w3.org/1999/xhtml"><p><b>Generated Narrative: Observation</b><a name="observation-mother-prepregnancy-weight-carmen-teresa-lee"> </a></p><div style="display: inline-block; background-color: #d9e0e7; padding: 6px; margin: 4px; border: 1px solid #8da1b4; border-radius: 5px; line-height: 60%"><p style="margin-bottom: 0px">Resource Observation &quot;observation-mother-prepregnancy-weight-carmen-teresa-lee&quot; </p><p style="margin-bottom: 0px">Profile: <a href="StructureDefinition-Observation-mother-prepregnancy-weight.html">Observation - Mother Prepregnancy Weight</a></p></div><p><b>status</b>: final</p><p><b>category</b>: Vital Signs <span style="background: LightGoldenRodYellow; margin: 4px; border: 1px solid khaki"> (<a href="http://terminology.hl7.org/6.0.2/CodeSystem-observation-category.html">Observation Category Codes</a>#vital-signs)</span></p><p><b>code</b>: Body weight --pre current pregnancy <span style="background: LightGoldenRodYellow; margin: 4px; border: 1px solid khaki"> (<a href="https://loinc.org/">LOINC</a>#56077-1)</span></p><p><b>subject</b>: <a href="#Patient_patient-mother-carmen-teresa-lee">See above (Patient/patient-mother-carmen-teresa-lee: Patient - Mother (Carmen Teresa Lee))</a></p><p><b>effective</b>: 2019-12-02</p><p><b>performer</b>: <a href="#Practitioner_practitioner-vital-records-janet-seito">See above (Practitioner/practitioner-vital-records-janet-seito)</a></p><p><b>value</b>: 180 [lb_av]<span style="background: LightGoldenRodYellow"> (Details: UCUM code [lb_av] = '[lb_av]')</span></p></div>
        </text>
        <status value="final"/>
        <category>
          <coding>
            <system value="http://terminology.hl7.org/CodeSystem/observation-category"/>
            <code value="vital-signs"/>
            <display value="Vital Signs"/>
          </coding>
        </category>
        <code>
          <coding>
            <system value="http://loinc.org"/>
            <code value="56077-1"/>
            <display value="Body weight --pre current pregnancy"/>
          </coding>
        </code>
        <subject>
          <reference value="Patient/patient-mother-carmen-teresa-lee"/>
          <display value="Patient - Mother (Carmen Teresa Lee)"/>
        </subject>
        <effectiveDateTime value="2019-12-02"/>
        <performer>
          <reference value="Practitioner/practitioner-vital-records-janet-seito"/>
        </performer>
        <valueQuantity>
          <value value="180"/>
          <system value="http://unitsofmeasure.org"/>
          <code value="[lb_av]"/>
        </valueQuantity>
      </Observation>
    </resource>
  </entry>
  <entry>
    <fullUrl value="http://www.example.org/fhir/Observation/observation-mother-received-wic-food-carmen-teresa-lee"/>
    <resource>
      <Observation>
        <id value="observation-mother-received-wic-food-carmen-teresa-lee"/>
        <meta>
          <profile value="http://hl7.org/fhir/us/bfdr/StructureDefinition/Observation-mother-received-wic-food"/>
        </meta>
        <text>
          <status value="generated"/><div xmlns="http://www.w3.org/1999/xhtml"><p><b>Generated Narrative: Observation</b><a name="observation-mother-received-wic-food-carmen-teresa-lee"> </a></p><div style="display: inline-block; background-color: #d9e0e7; padding: 6px; margin: 4px; border: 1px solid #8da1b4; border-radius: 5px; line-height: 60%"><p style="margin-bottom: 0px">Resource Observation &quot;observation-mother-received-wic-food-carmen-teresa-lee&quot; </p><p style="margin-bottom: 0px">Profile: <a href="StructureDefinition-Observation-mother-received-wic-food.html">Observation - Mother Recieved WIC Food</a></p></div><p><b>status</b>: final</p><p><b>code</b>: Mother WIC food recipient <span style="background: LightGoldenRodYellow; margin: 4px; border: 1px solid khaki"> (<a href="https://loinc.org/">LOINC</a>#87303-4)</span></p><p><b>subject</b>: <a href="#Patient_patient-mother-carmen-teresa-lee">See above (Patient/patient-mother-carmen-teresa-lee: Patient - Mother (Carmen Teresa Lee))</a></p><p><b>focus</b>: <a href="#Patient_patient-decedent-fetus-not-named">See above (Patient/patient-decedent-fetus-not-named: Patient - Decedent Fetus (Fetus Not Named))</a></p><p><b>effective</b>: 2019-12-02</p><p><b>performer</b>: <a href="#Patient_patient-mother-carmen-teresa-lee">See above (Patient/patient-mother-carmen-teresa-lee)</a></p><p><b>value</b>: No <span style="background: LightGoldenRodYellow; margin: 4px; border: 1px solid khaki"> (<a href="http://hl7.org/fhir/R4/v2/0136/index.html">v2 Y/N Indicator</a>#N)</span></p></div>
        </text>
        <status value="final"/>
        <code>
          <coding>
            <system value="http://loinc.org"/>
            <code value="87303-4"/>
          </coding>
        </code>
        <subject>
          <reference value="Patient/patient-mother-carmen-teresa-lee"/>
          <display value="Patient - Mother (Carmen Teresa Lee)"/>
        </subject>
        <focus>
          <reference value="Patient/patient-decedent-fetus-not-named"/>
          <display value="Patient - Decedent Fetus (Fetus Not Named)"/>
        </focus>
        <effectiveDateTime value="2019-12-02"/>
        <performer>
          <reference value="Patient/patient-mother-carmen-teresa-lee"/>
        </performer>
        <valueCodeableConcept>
          <coding>
            <system value="http://terminology.hl7.org/CodeSystem/v2-0136"/>
            <code value="N"/>
            <display value="No"/>
          </coding>
        </valueCodeableConcept>
      </Observation>
    </resource>
  </entry>
  <entry>
    <fullUrl value="http://www.example.org/fhir/Observation/observation-cig-smoking-pregnancy-1-carmen-teresa-lee"/>
    <resource>
      <Observation>
        <id value="observation-cig-smoking-pregnancy-1-carmen-teresa-lee"/>
        <meta>
          <profile value="http://hl7.org/fhir/us/bfdr/StructureDefinition/Observation-cigarette-smoking-before-during-pregnancy"/>
        </meta>
        <text>
          <status value="generated"/><div xmlns="http://www.w3.org/1999/xhtml"><p><b>Generated Narrative: Observation</b><a name="observation-cig-smoking-pregnancy-1-carmen-teresa-lee"> </a></p><div style="display: inline-block; background-color: #d9e0e7; padding: 6px; margin: 4px; border: 1px solid #8da1b4; border-radius: 5px; line-height: 60%"><p style="margin-bottom: 0px">Resource Observation &quot;observation-cig-smoking-pregnancy-1-carmen-teresa-lee&quot; </p><p style="margin-bottom: 0px">Profile: <a href="StructureDefinition-Observation-cigarette-smoking-before-during-pregnancy.html">Observation - Cigarette Smoking Before and During Pregnancy</a></p></div><p><b>status</b>: final</p><p><b>code</b>: In the 3 months before you got pregnant, how many cigarettes did you smoke on an average day [PhenX] <span style="background: LightGoldenRodYellow; margin: 4px; border: 1px solid khaki"> (<a href="https://loinc.org/">LOINC</a>#64794-1)</span></p><p><b>subject</b>: <a href="#Patient_patient-mother-carmen-teresa-lee">See above (Patient/patient-mother-carmen-teresa-lee: Patient - Mother (Carmen Teresa Lee))</a></p><p><b>focus</b>: <a href="#Patient_patient-decedent-fetus-not-named">See above (Patient/patient-decedent-fetus-not-named: Patient - Decedent Fetus (Fetus Not Named))</a></p><p><b>effective</b>: 2019-12-02</p><p><b>performer</b>: <a href="#Patient_patient-mother-carmen-teresa-lee">See above (Patient/patient-mother-carmen-teresa-lee)</a></p><p><b>value</b>: 0</p></div>
        </text>
        <status value="final"/>
        <code>
          <coding>
            <system value="http://loinc.org"/>
            <code value="64794-1"/>
            <display value="In the 3 months before you got pregnant, how many cigarettes did you smoke on an average day [PhenX]"/>
          </coding>
          <text value="In the 3 months before you got pregnant, how many cigarettes did you smoke on an average day [PhenX]"/>
        </code>
        <subject>
          <reference value="Patient/patient-mother-carmen-teresa-lee"/>
          <display value="Patient - Mother (Carmen Teresa Lee)"/>
        </subject>
        <focus>
          <reference value="Patient/patient-decedent-fetus-not-named"/>
          <display value="Patient - Decedent Fetus (Fetus Not Named)"/>
        </focus>
        <effectiveDateTime value="2019-12-02"/>
        <performer>
          <reference value="Patient/patient-mother-carmen-teresa-lee"/>
        </performer>
        <valueInteger value="0"/>
      </Observation>
    </resource>
  </entry>
  <entry>
    <fullUrl value="http://www.example.org/fhir/Observation/observation-cig-smoking-pregnancy-2-carmen-teresa-lee"/>
    <resource>
      <Observation>
        <id value="observation-cig-smoking-pregnancy-2-carmen-teresa-lee"/>
        <meta>
          <profile value="http://hl7.org/fhir/us/bfdr/StructureDefinition/Observation-cigarette-smoking-before-during-pregnancy"/>
        </meta>
        <text>
          <status value="generated"/><div xmlns="http://www.w3.org/1999/xhtml"><p><b>Generated Narrative: Observation</b><a name="observation-cig-smoking-pregnancy-2-carmen-teresa-lee"> </a></p><div style="display: inline-block; background-color: #d9e0e7; padding: 6px; margin: 4px; border: 1px solid #8da1b4; border-radius: 5px; line-height: 60%"><p style="margin-bottom: 0px">Resource Observation &quot;observation-cig-smoking-pregnancy-2-carmen-teresa-lee&quot; </p><p style="margin-bottom: 0px">Profile: <a href="StructureDefinition-Observation-cigarette-smoking-before-during-pregnancy.html">Observation - Cigarette Smoking Before and During Pregnancy</a></p></div><p><b>status</b>: final</p><p><b>code</b>: Cigarettes smoked per day by Mother--1st trimester <span style="background: LightGoldenRodYellow; margin: 4px; border: 1px solid khaki"> (<a href="https://loinc.org/">LOINC</a>#87298-6)</span></p><p><b>subject</b>: <a href="#Patient_patient-mother-carmen-teresa-lee">See above (Patient/patient-mother-carmen-teresa-lee: Patient - Mother (Carmen Teresa Lee))</a></p><p><b>focus</b>: <a href="#Patient_patient-decedent-fetus-not-named">See above (Patient/patient-decedent-fetus-not-named: Patient - Decedent Fetus (Fetus Not Named))</a></p><p><b>effective</b>: 2019-12-02</p><p><b>performer</b>: <a href="#Patient_patient-mother-carmen-teresa-lee">See above (Patient/patient-mother-carmen-teresa-lee)</a></p><p><b>value</b>: 0</p></div>
        </text>
        <status value="final"/>
        <code>
          <coding>
            <system value="http://loinc.org"/>
            <code value="87298-6"/>
            <display value="Cigarettes smoked per day by Mother--1st trimester"/>
          </coding>
          <text value="Cigarettes smoked per day by Mother--1st trimester"/>
        </code>
        <subject>
          <reference value="Patient/patient-mother-carmen-teresa-lee"/>
          <display value="Patient - Mother (Carmen Teresa Lee)"/>
        </subject>
        <focus>
          <reference value="Patient/patient-decedent-fetus-not-named"/>
          <display value="Patient - Decedent Fetus (Fetus Not Named)"/>
        </focus>
        <effectiveDateTime value="2019-12-02"/>
        <performer>
          <reference value="Patient/patient-mother-carmen-teresa-lee"/>
        </performer>
        <valueInteger value="0"/>
      </Observation>
    </resource>
  </entry>
  <entry>
    <fullUrl value="http://www.example.org/fhir/Observation/observation-cig-smoking-pregnancy-3-carmen-teresa-lee"/>
    <resource>
      <Observation>
        <id value="observation-cig-smoking-pregnancy-3-carmen-teresa-lee"/>
        <meta>
          <profile value="http://hl7.org/fhir/us/bfdr/StructureDefinition/Observation-cigarette-smoking-before-during-pregnancy"/>
        </meta>
        <text>
          <status value="generated"/><div xmlns="http://www.w3.org/1999/xhtml"><p><b>Generated Narrative: Observation</b><a name="observation-cig-smoking-pregnancy-3-carmen-teresa-lee"> </a></p><div style="display: inline-block; background-color: #d9e0e7; padding: 6px; margin: 4px; border: 1px solid #8da1b4; border-radius: 5px; line-height: 60%"><p style="margin-bottom: 0px">Resource Observation &quot;observation-cig-smoking-pregnancy-3-carmen-teresa-lee&quot; </p><p style="margin-bottom: 0px">Profile: <a href="StructureDefinition-Observation-cigarette-smoking-before-during-pregnancy.html">Observation - Cigarette Smoking Before and During Pregnancy</a></p></div><p><b>status</b>: final</p><p><b>code</b>: Cigarettes smoked per day by Mother--2nd trimester <span style="background: LightGoldenRodYellow; margin: 4px; border: 1px solid khaki"> (<a href="https://loinc.org/">LOINC</a>#87299-4)</span></p><p><b>subject</b>: <a href="#Patient_patient-mother-carmen-teresa-lee">See above (Patient/patient-mother-carmen-teresa-lee: Patient - Mother (Carmen Teresa Lee))</a></p><p><b>focus</b>: <a href="#Patient_patient-decedent-fetus-not-named">See above (Patient/patient-decedent-fetus-not-named: Patient - Decedent Fetus (Fetus Not Named))</a></p><p><b>effective</b>: 2019-12-02</p><p><b>performer</b>: <a href="#Patient_patient-mother-carmen-teresa-lee">See above (Patient/patient-mother-carmen-teresa-lee)</a></p><p><b>value</b>: 1</p></div>
        </text>
        <status value="final"/>
        <code>
          <coding>
            <system value="http://loinc.org"/>
            <code value="87299-4"/>
            <display value="Cigarettes smoked per day by Mother--2nd trimester"/>
          </coding>
          <text value="Cigarettes smoked per day by Mother--2nd trimester"/>
        </code>
        <subject>
          <reference value="Patient/patient-mother-carmen-teresa-lee"/>
          <display value="Patient - Mother (Carmen Teresa Lee)"/>
        </subject>
        <focus>
          <reference value="Patient/patient-decedent-fetus-not-named"/>
          <display value="Patient - Decedent Fetus (Fetus Not Named)"/>
        </focus>
        <effectiveDateTime value="2019-12-02"/>
        <performer>
          <reference value="Patient/patient-mother-carmen-teresa-lee"/>
        </performer>
        <valueInteger value="1"/>
      </Observation>
    </resource>
  </entry>
  <entry>
    <fullUrl value="http://www.example.org/fhir/Observation/observation-cig-smoking-pregnancy-4-carmen-teresa-lee"/>
    <resource>
      <Observation>
        <id value="observation-cig-smoking-pregnancy-4-carmen-teresa-lee"/>
        <meta>
          <profile value="http://hl7.org/fhir/us/bfdr/StructureDefinition/Observation-cigarette-smoking-before-during-pregnancy"/>
        </meta>
        <text>
          <status value="generated"/><div xmlns="http://www.w3.org/1999/xhtml"><p><b>Generated Narrative: Observation</b><a name="observation-cig-smoking-pregnancy-4-carmen-teresa-lee"> </a></p><div style="display: inline-block; background-color: #d9e0e7; padding: 6px; margin: 4px; border: 1px solid #8da1b4; border-radius: 5px; line-height: 60%"><p style="margin-bottom: 0px">Resource Observation &quot;observation-cig-smoking-pregnancy-4-carmen-teresa-lee&quot; </p><p style="margin-bottom: 0px">Profile: <a href="StructureDefinition-Observation-cigarette-smoking-before-during-pregnancy.html">Observation - Cigarette Smoking Before and During Pregnancy</a></p></div><p><b>status</b>: final</p><p><b>code</b>: In the last 3 months of your pregnancy, how many cigarettes did you smoke on an average day [PhenX] <span style="background: LightGoldenRodYellow; margin: 4px; border: 1px solid khaki"> (<a href="https://loinc.org/">LOINC</a>#64795-8)</span></p><p><b>subject</b>: <a href="#Patient_patient-mother-carmen-teresa-lee">See above (Patient/patient-mother-carmen-teresa-lee: Patient - Mother (Carmen Teresa Lee))</a></p><p><b>focus</b>: <a href="#Patient_patient-decedent-fetus-not-named">See above (Patient/patient-decedent-fetus-not-named: Patient - Decedent Fetus (Fetus Not Named))</a></p><p><b>effective</b>: 2019-12-02</p><p><b>performer</b>: <a href="#Patient_patient-mother-carmen-teresa-lee">See above (Patient/patient-mother-carmen-teresa-lee)</a></p><p><b>value</b>: 0</p></div>
        </text>
        <status value="final"/>
        <code>
          <coding>
            <system value="http://loinc.org"/>
            <code value="64795-8"/>
            <display value="In the last 3 months of your pregnancy, how many cigarettes did you smoke on an average day [PhenX]"/>
          </coding>
          <text value="In the last 3 months of your pregnancy, how many cigarettes did you smoke on an average day [PhenX]"/>
        </code>
        <subject>
          <reference value="Patient/patient-mother-carmen-teresa-lee"/>
          <display value="Patient - Mother (Carmen Teresa Lee)"/>
        </subject>
        <focus>
          <reference value="Patient/patient-decedent-fetus-not-named"/>
          <display value="Patient - Decedent Fetus (Fetus Not Named)"/>
        </focus>
        <effectiveDateTime value="2019-12-02"/>
        <performer>
          <reference value="Patient/patient-mother-carmen-teresa-lee"/>
        </performer>
        <valueInteger value="0"/>
      </Observation>
    </resource>
  </entry>
  <entry>
    <fullUrl value="http://www.example.org/fhir/Observation/observation-number-previous-cesareans-carmen-teresa-lee"/>
    <resource>
      <Observation>
        <id value="observation-number-previous-cesareans-carmen-teresa-lee"/>
        <meta>
          <profile value="http://hl7.org/fhir/us/bfdr/StructureDefinition/Observation-number-previous-cesareans"/>
        </meta>
        <text>
          <status value="generated"/><div xmlns="http://www.w3.org/1999/xhtml"><p><b>Generated Narrative: Observation</b><a name="observation-number-previous-cesareans-carmen-teresa-lee"> </a></p><div style="display: inline-block; background-color: #d9e0e7; padding: 6px; margin: 4px; border: 1px solid #8da1b4; border-radius: 5px; line-height: 60%"><p style="margin-bottom: 0px">Resource Observation &quot;observation-number-previous-cesareans-carmen-teresa-lee&quot; </p><p style="margin-bottom: 0px">Profile: <a href="StructureDefinition-Observation-number-previous-cesareans.html">Observation - Number of Previous Cesareans</a></p></div><p><b>status</b>: final</p><p><b>code</b>: Previous cesarean deliveries # <span style="background: LightGoldenRodYellow; margin: 4px; border: 1px solid khaki"> (<a href="https://loinc.org/">LOINC</a>#68497-7)</span></p><p><b>subject</b>: <a href="#Patient_patient-mother-carmen-teresa-lee">See above (Patient/patient-mother-carmen-teresa-lee: Patient - Mother (Carmen Teresa Lee))</a></p><p><b>effective</b>: 2019-12-02</p><p><b>performer</b>: <a href="#Practitioner_practitioner-vital-records-janet-seito">See above (Practitioner/practitioner-vital-records-janet-seito)</a></p><p><b>value</b>: 1</p></div>
        </text>
        <status value="final"/>
        <code>
          <coding>
            <system value="http://loinc.org"/>
            <code value="68497-7"/>
            <display value="Previous cesarean deliveries #"/>
          </coding>
          <text value="Previous cesarean deliveries #"/>
        </code>
        <subject>
          <reference value="Patient/patient-mother-carmen-teresa-lee"/>
          <display value="Patient - Mother (Carmen Teresa Lee)"/>
        </subject>
        <effectiveDateTime value="2019-12-02"/>
        <performer>
          <reference value="Practitioner/practitioner-vital-records-janet-seito"/>
        </performer>
        <valueInteger value="1"/>
      </Observation>
    </resource>
  </entry>
  <entry>
    <fullUrl value="http://www.example.org/fhir/Condition/condition-gestational-diabetes-carmen-teresa-lee"/>
    <resource>
      <Condition>
        <id value="condition-gestational-diabetes-carmen-teresa-lee"/>
        <meta>
          <profile value="http://hl7.org/fhir/us/bfdr/StructureDefinition/Condition-gestational-diabetes"/>
        </meta>
        <text>
          <status value="generated"/><div xmlns="http://www.w3.org/1999/xhtml"><p><b>Generated Narrative: Condition</b><a name="condition-gestational-diabetes-carmen-teresa-lee"> </a></p><div style="display: inline-block; background-color: #d9e0e7; padding: 6px; margin: 4px; border: 1px solid #8da1b4; border-radius: 5px; line-height: 60%"><p style="margin-bottom: 0px">Resource Condition &quot;condition-gestational-diabetes-carmen-teresa-lee&quot; </p><p style="margin-bottom: 0px">Profile: <a href="StructureDefinition-Condition-gestational-diabetes.html">Condition - Gestational Diabetes</a></p></div><p><b>clinicalStatus</b>: Active <span style="background: LightGoldenRodYellow; margin: 4px; border: 1px solid khaki"> (<a href="http://terminology.hl7.org/6.0.2/CodeSystem-condition-clinical.html">Condition Clinical Status Codes</a>#active)</span></p><p><b>category</b>: Problem List Item <span style="background: LightGoldenRodYellow; margin: 4px; border: 1px solid khaki"> (<a href="http://terminology.hl7.org/6.0.2/CodeSystem-condition-category.html">Condition Category Codes</a>#problem-list-item)</span>, Mothers Risk factors in this pregnancy [US Standard Certificate of Live Birth] <span style="background: LightGoldenRodYellow; margin: 4px; border: 1px solid khaki"> (<a href="https://loinc.org/">LOINC</a>#73775-9)</span></p><p><b>code</b>: Gestational diabetes mellitus (disorder) <span style="background: LightGoldenRodYellow; margin: 4px; border: 1px solid khaki"> (<a href="https://browser.ihtsdotools.org/">SNOMED CT</a>#11687002)</span></p><p><b>subject</b>: <a href="#Patient_patient-mother-carmen-teresa-lee">See above (Patient/patient-mother-carmen-teresa-lee: Patient - Mother (Carmen Teresa Lee))</a></p><p><b>onset</b>: 2018-12-12</p></div>
        </text>
        <clinicalStatus>
          <coding>
            <system value="http://terminology.hl7.org/CodeSystem/condition-clinical"/>
            <code value="active"/>
            <display value="Active"/>
          </coding>
          <text value="Active"/>
        </clinicalStatus>
        <category>
          <coding>
            <system value="http://terminology.hl7.org/CodeSystem/condition-category"/>
            <code value="problem-list-item"/>
          </coding>
        </category>
        <category>
          <coding>
            <system value="http://loinc.org"/>
            <code value="73775-9"/>
          </coding>
        </category>
        <code>
          <coding>
            <system value="http://snomed.info/sct"/>
            <code value="11687002"/>
            <display value="Gestational diabetes mellitus (disorder)"/>
          </coding>
          <text value="Gestational diabetes mellitus (disorder)"/>
        </code>
        <subject>
          <reference value="Patient/patient-mother-carmen-teresa-lee"/>
          <display value="Patient - Mother (Carmen Teresa Lee)"/>
        </subject>
        <onsetDateTime value="2018-12-12"/>
      </Condition>
    </resource>
  </entry>
  <entry>
    <fullUrl value="http://www.example.org/fhir/Observation/observation-fetal-presentation-not-named"/>
    <resource>
      <Observation>
        <id value="observation-fetal-presentation-not-named"/>
        <meta>
          <profile value="http://hl7.org/fhir/us/bfdr/StructureDefinition/Observation-fetal-presentation"/>
        </meta>
        <text>
          <status value="generated"/><div xmlns="http://www.w3.org/1999/xhtml"><p><b>Generated Narrative: Observation</b><a name="observation-fetal-presentation-not-named"> </a></p><div style="display: inline-block; background-color: #d9e0e7; padding: 6px; margin: 4px; border: 1px solid #8da1b4; border-radius: 5px; line-height: 60%"><p style="margin-bottom: 0px">Resource Observation &quot;observation-fetal-presentation-not-named&quot; </p><p style="margin-bottom: 0px">Profile: <a href="StructureDefinition-Observation-fetal-presentation.html">Observation - Fetal Presentation at Birth/Delivery</a></p></div><p><b>status</b>: final</p><p><b>code</b>: Fetal presentation--at birth [US Standard Certificate of Live Birth] <span style="background: LightGoldenRodYellow; margin: 4px; border: 1px solid khaki"> (<a href="https://loinc.org/">LOINC</a>#73761-9)</span></p><p><b>subject</b>: <a href="#Patient_patient-decedent-fetus-not-named">See above (Patient/patient-decedent-fetus-not-named: Patient - Decedent Fetus (Fetus Not Named))</a></p><p><b>effective</b>: 2019-12-02</p><p><b>performer</b>: <a href="#Practitioner_practitioner-vital-records-janet-seito">See above (Practitioner/practitioner-vital-records-janet-seito)</a></p><p><b>value</b>: Breech presentation (finding) <span style="background: LightGoldenRodYellow; margin: 4px; border: 1px solid khaki"> (<a href="https://browser.ihtsdotools.org/">SNOMED CT</a>#6096002)</span></p></div>
        </text>
        <status value="final"/>
        <code>
          <coding>
            <system value="http://loinc.org"/>
            <code value="73761-9"/>
          </coding>
        </code>
        <subject>
          <reference value="Patient/patient-decedent-fetus-not-named"/>
          <display value="Patient - Decedent Fetus (Fetus Not Named)"/>
        </subject>
        <effectiveDateTime value="2019-12-02"/>
        <performer>
          <reference value="Practitioner/practitioner-vital-records-janet-seito"/>
        </performer>
        <valueCodeableConcept>
          <coding>
            <system value="http://snomed.info/sct"/>
            <code value="6096002"/>
            <display value="Breech presentation (finding)"/>
          </coding>
        </valueCodeableConcept>
      </Observation>
    </resource>
  </entry>
  <entry>
    <fullUrl value="http://www.example.org/fhir/Procedure/procedure-final-route-method-delivery-not-named"/>
    <resource>
      <Procedure>
        <id value="procedure-final-route-method-delivery-not-named"/>
        <meta>
          <profile value="http://hl7.org/fhir/us/bfdr/StructureDefinition/Procedure-final-route-method-delivery"/>
        </meta>
        <text>
          <status value="generated"/><div xmlns="http://www.w3.org/1999/xhtml"><p><b>Generated Narrative: Procedure</b><a name="procedure-final-route-method-delivery-not-named"> </a></p><div style="display: inline-block; background-color: #d9e0e7; padding: 6px; margin: 4px; border: 1px solid #8da1b4; border-radius: 5px; line-height: 60%"><p style="margin-bottom: 0px">Resource Procedure &quot;procedure-final-route-method-delivery-not-named&quot; </p><p style="margin-bottom: 0px">Profile: <a href="StructureDefinition-Procedure-final-route-method-delivery.html">Procedure - Final Route and Method of Delivery</a></p></div><p><b>status</b>: completed</p><p><b>category</b>: Final route and method of delivery [US Standard Certificate of Live Birth] <span style="background: LightGoldenRodYellow; margin: 4px; border: 1px solid khaki"> (<a href="https://loinc.org/">LOINC</a>#73762-7)</span></p><p><b>code</b>: Spontaneous vaginal delivery <span style="background: LightGoldenRodYellow; margin: 4px; border: 1px solid khaki"> (<a href="https://browser.ihtsdotools.org/">SNOMED CT</a>#700000006 &quot;Vaginal delivery of fetus (procedure)&quot;)</span></p><p><b>subject</b>: <a href="#Patient_patient-mother-carmen-teresa-lee">See above (Patient/patient-mother-carmen-teresa-lee: Patient - Mother (Carmen Teresa Lee))</a></p><p><b>performed</b>: 2019-01-19 18:00:00-0700 --&gt; 2019-01-19 18:23:00-0700</p></div>
        </text>
        <status value="completed"/>
        <category>
          <coding>
            <system value="http://loinc.org"/>
            <code value="73762-7"/>
          </coding>
        </category>
        <code>
          <coding>
            <system value="http://snomed.info/sct"/>
            <code value="700000006"/>
            <display value="Vaginal delivery of fetus (procedure)"/>
          </coding>
          <text value="Spontaneous vaginal delivery"/>
        </code>
        <subject>
          <reference value="Patient/patient-mother-carmen-teresa-lee"/>
          <display value="Patient - Mother (Carmen Teresa Lee)"/>
        </subject>
        <performedPeriod>
          <start value="2019-01-19T18:00:00-07:00"/>
          <end value="2019-01-19T18:23:00-07:00"/>
        </performedPeriod>
      </Procedure>
    </resource>
  </entry>
  <entry>
    <fullUrl value="http://www.example.org/fhir/Observation/observation-birth-weight-not-named"/>
    <resource>
      <Observation>
        <id value="observation-birth-weight-not-named"/>
        <meta>
          <profile value="http://hl7.org/fhir/us/bfdr/StructureDefinition/Observation-birth-weight"/>
        </meta>
        <text>
          <status value="generated"/><div xmlns="http://www.w3.org/1999/xhtml"><p><b>Generated Narrative: Observation</b><a name="observation-birth-weight-not-named"> </a></p><div style="display: inline-block; background-color: #d9e0e7; padding: 6px; margin: 4px; border: 1px solid #8da1b4; border-radius: 5px; line-height: 60%"><p style="margin-bottom: 0px">Resource Observation &quot;observation-birth-weight-not-named&quot; </p><p style="margin-bottom: 0px">Profile: <a href="StructureDefinition-Observation-birth-weight.html">Observation - Birth Weight</a></p></div><p><b>status</b>: final</p><p><b>category</b>: Vital Signs <span style="background: LightGoldenRodYellow; margin: 4px; border: 1px solid khaki"> (<a href="http://terminology.hl7.org/6.0.2/CodeSystem-observation-category.html">Observation Category Codes</a>#vital-signs)</span></p><p><b>code</b>: Birth weight Measured <span style="background: LightGoldenRodYellow; margin: 4px; border: 1px solid khaki"> (<a href="https://loinc.org/">LOINC</a>#8339-4)</span></p><p><b>subject</b>: <a href="#Patient_patient-decedent-fetus-not-named">See above (Patient/patient-decedent-fetus-not-named: Patient - Decedent Fetus (Fetus Not Named))</a></p><p><b>effective</b>: 2019-01-10</p><p><b>performer</b>: <a href="#Practitioner_practitioner-vital-records-janet-seito">See above (Practitioner/practitioner-vital-records-janet-seito)</a></p><p><b>value</b>: 1530 g<span style="background: LightGoldenRodYellow"> (Details: UCUM code g = 'g')</span></p></div>
        </text>
        <status value="final"/>
        <category>
          <coding>
            <system value="http://terminology.hl7.org/CodeSystem/observation-category"/>
            <code value="vital-signs"/>
          </coding>
        </category>
        <code>
          <coding>
            <system value="http://loinc.org"/>
            <code value="8339-4"/>
          </coding>
        </code>
        <subject>
          <reference value="Patient/patient-decedent-fetus-not-named"/>
          <display value="Patient - Decedent Fetus (Fetus Not Named)"/>
        </subject>
        <effectiveDateTime value="2019-01-10"/>
        <performer>
          <reference value="Practitioner/practitioner-vital-records-janet-seito"/>
        </performer>
        <valueQuantity>
          <value value="1530"/>
          <system value="http://unitsofmeasure.org"/>
          <code value="g"/>
        </valueQuantity>
      </Observation>
    </resource>
  </entry>
  <entry>
    <fullUrl value="http://www.example.org/fhir/Observation/observation-gestational-age-at-delivery-not-named"/>
    <resource>
      <Observation>
        <id value="observation-gestational-age-at-delivery-not-named"/>
        <meta>
          <profile value="http://hl7.org/fhir/us/bfdr/StructureDefinition/Observation-gestational-age-at-delivery"/>
        </meta>
        <text>
          <status value="generated"/><div xmlns="http://www.w3.org/1999/xhtml"><p><b>Generated Narrative: Observation</b><a name="observation-gestational-age-at-delivery-not-named"> </a></p><div style="display: inline-block; background-color: #d9e0e7; padding: 6px; margin: 4px; border: 1px solid #8da1b4; border-radius: 5px; line-height: 60%"><p style="margin-bottom: 0px">Resource Observation &quot;observation-gestational-age-at-delivery-not-named&quot; </p><p style="margin-bottom: 0px">Profile: <a href="StructureDefinition-Observation-gestational-age-at-delivery.html">Observation - Gestational Age at Delivery</a></p></div><p><b>status</b>: final</p><p><b>code</b>: Gestational age Estimated <span style="background: LightGoldenRodYellow; margin: 4px; border: 1px solid khaki"> (<a href="https://loinc.org/">LOINC</a>#11884-4)</span></p><p><b>subject</b>: <a href="#Patient_patient-decedent-fetus-not-named">See above (Patient/patient-decedent-fetus-not-named: Patient - Decedent Fetus (Fetus Not Named))</a></p><p><b>effective</b>: 2019-12-02</p><p><b>performer</b>: <a href="#Practitioner_practitioner-vital-records-janet-seito">See above (Practitioner/practitioner-vital-records-janet-seito)</a></p><p><b>value</b>: 20 wk<span style="background: LightGoldenRodYellow"> (Details: UCUM code wk = 'wk')</span></p></div>
        </text>
        <status value="final"/>
        <code>
          <coding>
            <system value="http://loinc.org"/>
            <code value="11884-4"/>
            <display value="Gestational age Estimated"/>
          </coding>
        </code>
        <subject>
          <reference value="Patient/patient-decedent-fetus-not-named"/>
          <display value="Patient - Decedent Fetus (Fetus Not Named)"/>
        </subject>
        <effectiveDateTime value="2019-12-02"/>
        <performer>
          <reference value="Practitioner/practitioner-vital-records-janet-seito"/>
        </performer>
        <valueQuantity>
          <value value="20"/>
          <system value="http://unitsofmeasure.org"/>
          <code value="wk"/>
        </valueQuantity>
      </Observation>
    </resource>
  </entry>
  <entry>
    <fullUrl value="http://www.example.org/fhir/Condition/condition-fetal-death-cause-or-condition-not-named"/>
    <resource>
      <Condition>
        <id value="condition-fetal-death-cause-or-condition-not-named"/>
        <meta>
          <profile value="http://hl7.org/fhir/us/bfdr/StructureDefinition/Condition-fetal-death-initiating-cause-or-condition"/>
        </meta>
        <text>
          <status value="generated"/><div xmlns="http://www.w3.org/1999/xhtml"><p><b>Generated Narrative: Condition</b><a name="condition-fetal-death-cause-or-condition-not-named"> </a></p><div style="display: inline-block; background-color: #d9e0e7; padding: 6px; margin: 4px; border: 1px solid #8da1b4; border-radius: 5px; line-height: 60%"><p style="margin-bottom: 0px">Resource Condition &quot;condition-fetal-death-cause-or-condition-not-named&quot; </p><p style="margin-bottom: 0px">Profile: <a href="StructureDefinition-Condition-fetal-death-initiating-cause-or-condition.html">Condition - Fetal Death Initiating Cause or Condition</a></p></div><p><b>category</b>: Encounter Diagnosis <span style="background: LightGoldenRodYellow; margin: 4px; border: 1px solid khaki"> (<a href="http://terminology.hl7.org/6.0.2/CodeSystem-condition-category.html">Condition Category Codes</a>#encounter-diagnosis)</span>, Initiating cause or condition of fetal death [US Standard Report of Fetal Death] <span style="background: LightGoldenRodYellow; margin: 4px; border: 1px solid khaki"> (<a href="https://loinc.org/">LOINC</a>#76060-3)</span></p><p><b>code</b>: Premature rupture of membranes (disorder) <span style="background: LightGoldenRodYellow; margin: 4px; border: 1px solid khaki"> (<a href="https://browser.ihtsdotools.org/">SNOMED CT</a>#44223004)</span></p><p><b>subject</b>: <a href="#Patient_patient-decedent-fetus-not-named">See above (Patient/patient-decedent-fetus-not-named: Patient - Decedent Fetus (Fetus Not Named))</a></p></div>
        </text>
        <category>
          <coding>
            <system value="http://terminology.hl7.org/CodeSystem/condition-category"/>
            <code value="encounter-diagnosis"/>
            <display value="Encounter Diagnosis"/>
          </coding>
        </category>
        <category>
          <coding>
            <system value="http://loinc.org"/>
            <code value="76060-3"/>
            <display value="Initiating cause or condition of fetal death [US Standard Report of Fetal Death]"/>
          </coding>
        </category>
        <code>
          <coding>
            <system value="http://snomed.info/sct"/>
            <code value="44223004"/>
            <display value="Premature rupture of membranes (disorder)"/>
          </coding>
          <text value="Premature rupture of membranes (disorder)"/>
        </code>
        <subject>
          <reference value="Patient/patient-decedent-fetus-not-named"/>
          <display value="Patient - Decedent Fetus (Fetus Not Named)"/>
        </subject>
      </Condition>
    </resource>
  </entry>
  <entry>
    <fullUrl value="http://www.example.org/fhir/Condition/condition-fetal-death-other-significant-cause-not-named"/>
    <resource>
      <Condition>
        <id value="condition-fetal-death-other-significant-cause-not-named"/>
        <meta>
          <profile value="http://hl7.org/fhir/us/bfdr/StructureDefinition/Condition-fetal-death-other-cause-or-condition"/>
        </meta>
        <text>
          <status value="generated"/><div xmlns="http://www.w3.org/1999/xhtml"><p><b>Generated Narrative: Condition</b><a name="condition-fetal-death-other-significant-cause-not-named"> </a></p><div style="display: inline-block; background-color: #d9e0e7; padding: 6px; margin: 4px; border: 1px solid #8da1b4; border-radius: 5px; line-height: 60%"><p style="margin-bottom: 0px">Resource Condition &quot;condition-fetal-death-other-significant-cause-not-named&quot; </p><p style="margin-bottom: 0px">Profile: <a href="StructureDefinition-Condition-fetal-death-other-cause-or-condition.html">Condition - Fetal Death Other Cause or Condition</a></p></div><p><b>category</b>: Encounter Diagnosis <span style="background: LightGoldenRodYellow; margin: 4px; border: 1px solid khaki"> (<a href="http://terminology.hl7.org/6.0.2/CodeSystem-condition-category.html">Condition Category Codes</a>#encounter-diagnosis)</span>, Other significant causes or conditions of fetal death [US Standard Report of Fetal Death] <span style="background: LightGoldenRodYellow; margin: 4px; border: 1px solid khaki"> (<a href="https://loinc.org/">LOINC</a>#76061-1)</span></p><p><b>code</b>: Placental insufficiency (disorder) <span style="background: LightGoldenRodYellow; margin: 4px; border: 1px solid khaki"> (<a href="https://browser.ihtsdotools.org/">SNOMED CT</a>#237292005)</span></p><p><b>subject</b>: <a href="#Patient_patient-decedent-fetus-not-named">See above (Patient/patient-decedent-fetus-not-named: Patient - Decedent Fetus (Fetus Not Named))</a></p></div>
        </text>
        <category>
          <coding>
            <system value="http://terminology.hl7.org/CodeSystem/condition-category"/>
            <code value="encounter-diagnosis"/>
            <display value="Encounter Diagnosis"/>
          </coding>
        </category>
        <category>
          <coding>
            <system value="http://loinc.org"/>
            <code value="76061-1"/>
            <display value="Other significant causes or conditions of fetal death [US Standard Report of Fetal Death]"/>
          </coding>
        </category>
        <code>
          <coding>
            <system value="http://snomed.info/sct"/>
            <code value="237292005"/>
            <display value="Placental insufficiency (disorder)"/>
          </coding>
          <text value="Placental insufficiency (disorder)"/>
        </code>
        <subject>
          <reference value="Patient/patient-decedent-fetus-not-named"/>
          <display value="Patient - Decedent Fetus (Fetus Not Named)"/>
        </subject>
      </Condition>
    </resource>
  </entry>
  <entry>
    <fullUrl value="http://www.example.org/fhir/Observation/observation-fetal-death-time-point-not-named"/>
    <resource>
      <Observation>
        <id value="observation-fetal-death-time-point-not-named"/>
        <meta>
          <profile value="http://hl7.org/fhir/us/bfdr/StructureDefinition/Observation-fetal-death-time-point"/>
        </meta>
        <text>
          <status value="generated"/><div xmlns="http://www.w3.org/1999/xhtml"><p><b>Generated Narrative: Observation</b><a name="observation-fetal-death-time-point-not-named"> </a></p><div style="display: inline-block; background-color: #d9e0e7; padding: 6px; margin: 4px; border: 1px solid #8da1b4; border-radius: 5px; line-height: 60%"><p style="margin-bottom: 0px">Resource Observation &quot;observation-fetal-death-time-point-not-named&quot; </p><p style="margin-bottom: 0px">Profile: <a href="StructureDefinition-Observation-fetal-death-time-point.html">Observation - Fetal Death Time Point</a></p></div><p><b>status</b>: final</p><p><b>code</b>: Estimated timing of fetal death [US Standard Report of Fetal Death] <span style="background: LightGoldenRodYellow; margin: 4px; border: 1px solid khaki"> (<a href="https://loinc.org/">LOINC</a>#73811-2)</span></p><p><b>subject</b>: <a href="#Patient_patient-decedent-fetus-not-named">See above (Patient/patient-decedent-fetus-not-named: Patient - Decedent Fetus (Fetus Not Named))</a></p><p><b>effective</b>: 2019-12-02</p><p><b>performer</b>: <a href="#Practitioner_practitioner-vital-records-janet-seito">See above (Practitioner/practitioner-vital-records-janet-seito)</a></p><p><b>value</b>: Fetal intrapartum death after first assessment (event) <span style="background: LightGoldenRodYellow; margin: 4px; border: 1px solid khaki"> (<a href="https://browser.ihtsdotools.org/">SNOMED CT</a>#434631000124100)</span></p></div>
        </text>
        <status value="final"/>
        <code>
          <coding>
            <system value="http://loinc.org"/>
            <code value="73811-2"/>
          </coding>
        </code>
        <subject>
          <reference value="Patient/patient-decedent-fetus-not-named"/>
          <display value="Patient - Decedent Fetus (Fetus Not Named)"/>
        </subject>
        <effectiveDateTime value="2019-12-02"/>
        <performer>
          <reference value="Practitioner/practitioner-vital-records-janet-seito"/>
        </performer>
        <valueCodeableConcept>
          <coding>
            <system value="http://snomed.info/sct"/>
            <code value="434631000124100"/>
            <display value="Fetal intrapartum death after first assessment (event)"/>
          </coding>
        </valueCodeableConcept>
      </Observation>
    </resource>
  </entry>
  <entry>
    <fullUrl value="http://www.example.org/fhir/Observation/observation-autopsy-performed-not-named"/>
    <resource>
      <Observation>
        <id value="observation-autopsy-performed-not-named"/>
        <meta>
          <profile value="http://hl7.org/fhir/us/bfdr/StructureDefinition/Observation-autopsy-performed-indicator"/>
        </meta>
        <text>
          <status value="generated"/><div xmlns="http://www.w3.org/1999/xhtml"><p><b>Generated Narrative: Observation</b><a name="observation-autopsy-performed-not-named"> </a></p><div style="display: inline-block; background-color: #d9e0e7; padding: 6px; margin: 4px; border: 1px solid #8da1b4; border-radius: 5px; line-height: 60%"><p style="margin-bottom: 0px">Resource Observation &quot;observation-autopsy-performed-not-named&quot; </p><p style="margin-bottom: 0px">Profile: <a href="StructureDefinition-Observation-autopsy-performed-indicator.html">Observation - Autopsy Performed Indicator</a></p></div><p><b>status</b>: final</p><p><b>code</b>: Autopsy was performed <span style="background: LightGoldenRodYellow; margin: 4px; border: 1px solid khaki"> (<a href="https://loinc.org/">LOINC</a>#85699-7)</span></p><p><b>subject</b>: <a href="#Patient_patient-decedent-fetus-not-named">See above (Patient/patient-decedent-fetus-not-named: Patient - Decedent Fetus (Fetus Not Named))</a></p><p><b>effective</b>: 2019-12-02</p><p><b>performer</b>: <a href="#Practitioner_practitioner-vital-records-janet-seito">See above (Practitioner/practitioner-vital-records-janet-seito)</a></p><p><b>value</b>: Performed <span style="background: LightGoldenRodYellow; margin: 4px; border: 1px solid khaki"> (<a href="https://browser.ihtsdotools.org/">SNOMED CT</a>#398166005)</span></p></div>
        </text>
        <status value="final"/>
        <code>
          <coding>
            <system value="http://loinc.org"/>
            <code value="85699-7"/>
            <display value="Autopsy was performed"/>
          </coding>
        </code>
        <subject>
          <reference value="Patient/patient-decedent-fetus-not-named"/>
          <display value="Patient - Decedent Fetus (Fetus Not Named)"/>
        </subject>
        <effectiveDateTime value="2019-12-02"/>
        <performer>
          <reference value="Practitioner/practitioner-vital-records-janet-seito"/>
        </performer>
        <valueCodeableConcept>
          <coding>
            <system value="http://snomed.info/sct"/>
            <code value="398166005"/>
            <display value="Performed"/>
          </coding>
        </valueCodeableConcept>
      </Observation>
    </resource>
  </entry>
  <entry>
    <fullUrl value="http://www.example.org/fhir/Observation/observation-histological-placental-exam-performed-not-named"/>
    <resource>
      <Observation>
        <id value="observation-histological-placental-exam-performed-not-named"/>
        <meta>
          <profile value="http://hl7.org/fhir/us/bfdr/StructureDefinition/Observation-histological-placental-exam-performed"/>
        </meta>
        <text>
          <status value="generated"/><div xmlns="http://www.w3.org/1999/xhtml"><p><b>Generated Narrative: Observation</b><a name="observation-histological-placental-exam-performed-not-named"> </a></p><div style="display: inline-block; background-color: #d9e0e7; padding: 6px; margin: 4px; border: 1px solid #8da1b4; border-radius: 5px; line-height: 60%"><p style="margin-bottom: 0px">Resource Observation &quot;observation-histological-placental-exam-performed-not-named&quot; </p><p style="margin-bottom: 0px">Profile: <a href="StructureDefinition-Observation-histological-placental-exam-performed.html">Observation - Histological Placental Exam Performed</a></p></div><p><b>status</b>: final</p><p><b>code</b>: Histological placental examination was performed [US Standard Report of Fetal Death] <span style="background: LightGoldenRodYellow; margin: 4px; border: 1px solid khaki"> (<a href="https://loinc.org/">LOINC</a>#73767-6)</span></p><p><b>subject</b>: <a href="#Patient_patient-decedent-fetus-not-named">See above (Patient/patient-decedent-fetus-not-named: Patient - Decedent Fetus (Fetus Not Named))</a></p><p><b>effective</b>: 2019-12-02</p><p><b>performer</b>: <a href="#Practitioner_practitioner-vital-records-janet-seito">See above (Practitioner/practitioner-vital-records-janet-seito)</a></p><p><b>value</b>: Performed <span style="background: LightGoldenRodYellow; margin: 4px; border: 1px solid khaki"> (<a href="https://browser.ihtsdotools.org/">SNOMED CT</a>#398166005)</span></p></div>
        </text>
        <status value="final"/>
        <code>
          <coding>
            <system value="http://loinc.org"/>
            <code value="73767-6"/>
          </coding>
        </code>
        <subject>
          <reference value="Patient/patient-decedent-fetus-not-named"/>
          <display value="Patient - Decedent Fetus (Fetus Not Named)"/>
        </subject>
        <effectiveDateTime value="2019-12-02"/>
        <performer>
          <reference value="Practitioner/practitioner-vital-records-janet-seito"/>
        </performer>
        <valueCodeableConcept>
          <coding>
            <system value="http://snomed.info/sct"/>
            <code value="398166005"/>
            <display value="Performed"/>
          </coding>
        </valueCodeableConcept>
      </Observation>
    </resource>
  </entry>
  <entry>
    <fullUrl value="http://www.example.org/fhir/Observation/observation-autopsy-histological-exam-results-used-not-named"/>
    <resource>
      <Observation>
        <id value="observation-autopsy-histological-exam-results-used-not-named"/>
        <meta>
          <profile value="http://hl7.org/fhir/us/bfdr/StructureDefinition/Observation-autopsy-histological-exam-results-used"/>
        </meta>
        <text>
          <status value="generated"/><div xmlns="http://www.w3.org/1999/xhtml"><p><b>Generated Narrative: Observation</b><a name="observation-autopsy-histological-exam-results-used-not-named"> </a></p><div style="display: inline-block; background-color: #d9e0e7; padding: 6px; margin: 4px; border: 1px solid #8da1b4; border-radius: 5px; line-height: 60%"><p style="margin-bottom: 0px">Resource Observation &quot;observation-autopsy-histological-exam-results-used-not-named&quot; </p><p style="margin-bottom: 0px">Profile: <a href="StructureDefinition-Observation-autopsy-histological-exam-results-used.html">Observation - Autopsy or Histological Exam Results Used</a></p></div><p><b>status</b>: final</p><p><b>code</b>: Autopsy or histological placental examination results were used [US Standard Report of Fetal Death] <span style="background: LightGoldenRodYellow; margin: 4px; border: 1px solid khaki"> (<a href="https://loinc.org/">LOINC</a>#74498-7)</span></p><p><b>subject</b>: <a href="#Patient_patient-decedent-fetus-not-named">See above (Patient/patient-decedent-fetus-not-named: Patient - Decedent Fetus (Fetus Not Named))</a></p><p><b>effective</b>: 2019-12-02</p><p><b>performer</b>: <a href="#Practitioner_practitioner-vital-records-janet-seito">See above (Practitioner/practitioner-vital-records-janet-seito)</a></p><p><b>value</b>: Yes <span style="background: LightGoldenRodYellow; margin: 4px; border: 1px solid khaki"> (<a href="http://hl7.org/fhir/R4/v2/0136/index.html">v2 Y/N Indicator</a>#Y)</span></p></div>
        </text>
        <status value="final"/>
        <code>
          <coding>
            <system value="http://loinc.org"/>
            <code value="74498-7"/>
            <display value="Autopsy or histological placental examination results were used [US Standard Report of Fetal Death]"/>
          </coding>
        </code>
        <subject>
          <reference value="Patient/patient-decedent-fetus-not-named"/>
          <display value="Patient - Decedent Fetus (Fetus Not Named)"/>
        </subject>
        <effectiveDateTime value="2019-12-02"/>
        <performer>
          <reference value="Practitioner/practitioner-vital-records-janet-seito"/>
        </performer>
        <valueCodeableConcept>
          <coding>
            <system value="http://terminology.hl7.org/CodeSystem/v2-0136"/>
            <code value="Y"/>
            <display value="Yes"/>
          </coding>
        </valueCodeableConcept>
      </Observation>
    </resource>
  </entry>
  <entry>
    <fullUrl value="http://www.example.org/fhir/Observation/observation-number-deaths-this-delivery-carmen-teresa-lee"/>
    <resource>
      <Observation>
        <id value="observation-number-deaths-this-delivery-carmen-teresa-lee"/>
        <meta>
          <profile value="http://hl7.org/fhir/us/bfdr/StructureDefinition/Observation-number-fetal-deaths-this-delivery"/>
        </meta>
        <text>
          <status value="generated"/><div xmlns="http://www.w3.org/1999/xhtml"><p><b>Generated Narrative: Observation</b><a name="observation-number-deaths-this-delivery-carmen-teresa-lee"> </a></p><div style="display: inline-block; background-color: #d9e0e7; padding: 6px; margin: 4px; border: 1px solid #8da1b4; border-radius: 5px; line-height: 60%"><p style="margin-bottom: 0px">Resource Observation &quot;observation-number-deaths-this-delivery-carmen-teresa-lee&quot; </p><p style="margin-bottom: 0px">Profile: <a href="StructureDefinition-Observation-number-fetal-deaths-this-delivery.html">Observation - Number of Fetal Deaths This Delivery</a></p></div><p><b>status</b>: final</p><p><b>code</b>: Number of fetal deaths delivered <span style="background: LightGoldenRodYellow; margin: 4px; border: 1px solid khaki"> (<a href="https://loinc.org/">LOINC</a>#73772-6)</span></p><p><b>subject</b>: <a href="#Patient_patient-mother-carmen-teresa-lee">See above (Patient/patient-mother-carmen-teresa-lee: Patient - Mother (Carmen Teresa Lee))</a></p><p><b>focus</b>: <a href="#Patient_patient-decedent-fetus-not-named">See above (Patient/patient-decedent-fetus-not-named: Patient - Decedent Fetus (Fetus Not Named))</a></p><p><b>effective</b>: 2019-12-02</p><p><b>performer</b>: <a href="#Practitioner_practitioner-vital-records-janet-seito">See above (Practitioner/practitioner-vital-records-janet-seito)</a></p><p><b>value</b>: 1</p></div>
        </text>
        <status value="final"/>
        <code>
          <coding>
            <system value="http://loinc.org"/>
            <code value="73772-6"/>
            <display value="Number of fetal deaths delivered"/>
          </coding>
          <text value="Number of fetal deaths delivered"/>
        </code>
        <subject>
          <reference value="Patient/patient-mother-carmen-teresa-lee"/>
          <display value="Patient - Mother (Carmen Teresa Lee)"/>
        </subject>
        <focus>
          <reference value="Patient/patient-decedent-fetus-not-named"/>
          <display value="Patient - Decedent Fetus (Fetus Not Named)"/>
        </focus>
        <effectiveDateTime value="2019-12-02"/>
        <performer>
          <reference value="Practitioner/practitioner-vital-records-janet-seito"/>
        </performer>
        <valueInteger value="1"/>
      </Observation>
    </resource>
  </entry>
  <entry>
    <fullUrl value="http://www.example.org/fhir/Observation/observation-parent-education-level-carmen-teresa-lee"/>
    <resource>
      <Observation>
        <id value="observation-parent-education-level-carmen-teresa-lee"/>
        <meta>
          <profile value="http://hl7.org/fhir/us/vr-common-library/StructureDefinition/Observation-education-level-vr"/>
        </meta>
        <text>
          <status value="generated"/><div xmlns="http://www.w3.org/1999/xhtml"><p><b>Generated Narrative: Observation</b><a name="observation-parent-education-level-carmen-teresa-lee"> </a></p><div style="display: inline-block; background-color: #d9e0e7; padding: 6px; margin: 4px; border: 1px solid #8da1b4; border-radius: 5px; line-height: 60%"><p style="margin-bottom: 0px">Resource Observation &quot;observation-parent-education-level-carmen-teresa-lee&quot; </p><p style="margin-bottom: 0px">Profile: <a href="https://build.fhir.org/ig/HL7/vr-common-library//StructureDefinition-Observation-education-level-vr.html">Observation - Education Level Vital Records</a></p></div><p><b>status</b>: final</p><p><b>code</b>: Highest level of education Mother <span style="background: LightGoldenRodYellow; margin: 4px; border: 1px solid khaki"> (<a href="https://loinc.org/">LOINC</a>#57712-2)</span></p><p><b>subject</b>: <a href="#Patient_patient-decedent-fetus-not-named">See above (Patient/patient-decedent-fetus-not-named: Patient - Decedent Fetus (Fetus Not Named))</a></p><p><b>focus</b>: <a href="#Patient_patient-mother-carmen-teresa-lee">See above (Patient/patient-mother-carmen-teresa-lee: Patient - Mother (Carmen Teresa Lee))</a></p><p><b>effective</b>: 2019-12-02</p><p><b>performer</b>: <a href="#Patient_patient-mother-carmen-teresa-lee">See above (Patient/patient-mother-carmen-teresa-lee)</a></p><p><b>value</b>: 9th through 12th grade; no diploma <span style="background: LightGoldenRodYellow; margin: 4px; border: 1px solid khaki"> (<a href="http://terminology.hl7.org/6.0.2/CodeSystem-v3-EducationLevel.html">Education Level</a>#SEC &quot;Some secondary or high school education&quot;)</span></p></div>
        </text>
        <status value="final"/>
        <code>
          <coding>
            <system value="http://loinc.org"/>
            <code value="57712-2"/>
            <display value="Highest level of education Mother"/>
          </coding>
        </code>
        <subject>
          <reference value="Patient/patient-decedent-fetus-not-named"/>
          <display value="Patient - Decedent Fetus (Fetus Not Named)"/>
        </subject>
        <focus>
          <reference value="Patient/patient-mother-carmen-teresa-lee"/>
          <display value="Patient - Mother (Carmen Teresa Lee)"/>
        </focus>
        <effectiveDateTime value="2019-12-02"/>
        <performer>
          <reference value="Patient/patient-mother-carmen-teresa-lee"/>
        </performer>
        <valueCodeableConcept>
          <coding>
            <system value="http://terminology.hl7.org/CodeSystem/v3-EducationLevel"/>
            <code value="SEC"/>
            <display value="Some secondary or high school education"/>
          </coding>
          <text value="9th through 12th grade; no diploma"/>
        </valueCodeableConcept>
      </Observation>
    </resource>
  </entry>
  <entry>
    <fullUrl value="http://www.example.org/fhir/Observation/observation-present-job-carmen-teresa-lee"/>
    <resource>
      <Observation>
        <id value="observation-present-job-carmen-teresa-lee"/>
        <meta>
          <profile value="http://hl7.org/fhir/us/bfdr/StructureDefinition/Observation-present-job"/>
        </meta>
        <text>
          <status value="extensions"/><div xmlns="http://www.w3.org/1999/xhtml"><p><b>Generated Narrative: Observation</b><a name="observation-present-job-carmen-teresa-lee"> </a></p><div style="display: inline-block; background-color: #d9e0e7; padding: 6px; margin: 4px; border: 1px solid #8da1b4; border-radius: 5px; line-height: 60%"><p style="margin-bottom: 0px">Resource Observation &quot;observation-present-job-carmen-teresa-lee&quot; </p><p style="margin-bottom: 0px">Profile: <a href="StructureDefinition-Observation-present-job.html">Observation - Present Job</a></p></div><p><b>Extension Parental Role</b>: mother <span style="background: LightGoldenRodYellow; margin: 4px; border: 1px solid khaki"> (<a href="http://terminology.hl7.org/6.0.2/CodeSystem-v3-RoleCode.html">RoleCode</a>#MTH)</span></p><p><b>status</b>: final</p><p><b>code</b>: History of Occupation <span style="background: LightGoldenRodYellow; margin: 4px; border: 1px solid khaki"> (<a href="https://loinc.org/">LOINC</a>#11341-5)</span></p><p><b>subject</b>: <a href="#Patient_patient-decedent-fetus-not-named">See above (Patient/patient-decedent-fetus-not-named)</a></p><p><b>focus</b>: <a href="#RelatedPerson_relatedperson-mother-carmen-teresa-lee">See above (RelatedPerson/relatedperson-mother-carmen-teresa-lee)</a></p><p><b>effective</b>: 2019-01-09 --&gt; (ongoing)</p><p><b>value</b>: Secretary <span style="background: LightGoldenRodYellow; margin: 4px; border: 1px solid khaki"> ()</span></p><h3>Components</h3><table class="grid"><tr><td style="display: none">-</td><td><b>Code</b></td><td><b>Value[x]</b></td></tr><tr><td style="display: none">*</td><td>History of Occupation industry <span style="background: LightGoldenRodYellow; margin: 4px; border: 1px solid khaki"> (<a href="https://loinc.org/">LOINC</a>#86188-0)</span></td><td>State Agency <span style="background: LightGoldenRodYellow; margin: 4px; border: 1px solid khaki"> ()</span></td></tr></table></div>
        </text>
        <extension url="http://hl7.org/fhir/us/bfdr/StructureDefinition/Extension-role">
          <valueCodeableConcept>
            <coding>
              <system value="http://terminology.hl7.org/CodeSystem/v3-RoleCode"/>
              <code value="MTH"/>
              <display value="mother"/>
            </coding>
          </valueCodeableConcept>
        </extension>
        <status value="final"/>
        <code>
          <coding>
            <system value="http://loinc.org"/>
            <code value="11341-5"/>
          </coding>
        </code>
        <subject>
          <reference value="Patient/patient-decedent-fetus-not-named"/>
        </subject>
        <focus>
          <reference value="RelatedPerson/relatedperson-mother-carmen-teresa-lee"/>
        </focus>
        <effectivePeriod>
          <start value="2019-01-09"/>
        </effectivePeriod>
        <valueCodeableConcept>
          <text value="Secretary"/>
        </valueCodeableConcept>
        <component>
          <code>
            <coding>
              <system value="http://loinc.org"/>
              <code value="86188-0"/>
            </coding>
          </code>
          <valueCodeableConcept>
            <text value="State Agency"/>
          </valueCodeableConcept>
        </component>
      </Observation>
    </resource>
  </entry>
  <entry>
    <fullUrl value="http://www.example.org/fhir/Observation/observation-present-job-tom-yan-lee"/>
    <resource>
      <Observation>
        <id value="observation-present-job-tom-yan-lee"/>
        <meta>
          <profile value="http://hl7.org/fhir/us/bfdr/StructureDefinition/Observation-present-job"/>
        </meta>
        <text>
          <status value="extensions"/><div xmlns="http://www.w3.org/1999/xhtml"><p><b>Generated Narrative: Observation</b><a name="observation-present-job-tom-yan-lee"> </a></p><div style="display: inline-block; background-color: #d9e0e7; padding: 6px; margin: 4px; border: 1px solid #8da1b4; border-radius: 5px; line-height: 60%"><p style="margin-bottom: 0px">Resource Observation &quot;observation-present-job-tom-yan-lee&quot; </p><p style="margin-bottom: 0px">Profile: <a href="StructureDefinition-Observation-present-job.html">Observation - Present Job</a></p></div><p><b>Extension Parental Role</b>: father <span style="background: LightGoldenRodYellow; margin: 4px; border: 1px solid khaki"> (<a href="http://terminology.hl7.org/6.0.2/CodeSystem-v3-RoleCode.html">RoleCode</a>#FTH)</span></p><p><b>status</b>: final</p><p><b>code</b>: History of Occupation <span style="background: LightGoldenRodYellow; margin: 4px; border: 1px solid khaki"> (<a href="https://loinc.org/">LOINC</a>#11341-5)</span></p><p><b>subject</b>: <a href="#Patient_patient-decedent-fetus-not-named">See above (Patient/patient-decedent-fetus-not-named)</a></p><p><b>focus</b>: <a href="#RelatedPerson_relatedperson-father-natural-tom-yan-lee">See above (RelatedPerson/relatedperson-father-natural-tom-yan-lee)</a></p><p><b>effective</b>: 2019-01-09 --&gt; (ongoing)</p><p><b>value</b>: Teaching Assistant <span style="background: LightGoldenRodYellow; margin: 4px; border: 1px solid khaki"> ()</span></p><h3>Components</h3><table class="grid"><tr><td style="display: none">-</td><td><b>Code</b></td><td><b>Value[x]</b></td></tr><tr><td style="display: none">*</td><td>History of Occupation industry <span style="background: LightGoldenRodYellow; margin: 4px; border: 1px solid khaki"> (<a href="https://loinc.org/">LOINC</a>#86188-0)</span></td><td>Elementary and Secondary Schools <span style="background: LightGoldenRodYellow; margin: 4px; border: 1px solid khaki"> ()</span></td></tr></table></div>
        </text>
        <extension url="http://hl7.org/fhir/us/bfdr/StructureDefinition/Extension-role">
          <valueCodeableConcept>
            <coding>
              <system value="http://terminology.hl7.org/CodeSystem/v3-RoleCode"/>
              <code value="FTH"/>
              <display value="father"/>
            </coding>
          </valueCodeableConcept>
        </extension>
        <status value="final"/>
        <code>
          <coding>
            <system value="http://loinc.org"/>
            <code value="11341-5"/>
          </coding>
        </code>
        <subject>
          <reference value="Patient/patient-decedent-fetus-not-named"/>
        </subject>
        <focus>
          <reference value="RelatedPerson/relatedperson-father-natural-tom-yan-lee"/>
        </focus>
        <effectivePeriod>
          <start value="2019-01-09"/>
        </effectivePeriod>
        <valueCodeableConcept>
          <text value="Teaching Assistant"/>
        </valueCodeableConcept>
        <component>
          <code>
            <coding>
              <system value="http://loinc.org"/>
              <code value="86188-0"/>
            </coding>
          </code>
          <valueCodeableConcept>
            <text value="Elementary and Secondary Schools"/>
          </valueCodeableConcept>
        </component>
      </Observation>
    </resource>
  </entry>
  <entry>
    <fullUrl value="http://www.example.org/fhir/Observation/observation-input-race-and-ethnicity-carmen-teresa-lee"/>
    <resource>
      <Observation>
        <id value="observation-input-race-and-ethnicity-carmen-teresa-lee"/>
        <meta>
          <profile value="http://hl7.org/fhir/us/vr-common-library/StructureDefinition/input-race-and-ethnicity-vr"/>
        </meta>
        <text>
          <status value="generated"/><div xmlns="http://www.w3.org/1999/xhtml"><p><b>Generated Narrative: Observation</b><a name="observation-input-race-and-ethnicity-carmen-teresa-lee"> </a></p><div style="display: inline-block; background-color: #d9e0e7; padding: 6px; margin: 4px; border: 1px solid #8da1b4; border-radius: 5px; line-height: 60%"><p style="margin-bottom: 0px">Resource Observation &quot;observation-input-race-and-ethnicity-carmen-teresa-lee&quot; </p><p style="margin-bottom: 0px">Profile: <a href="https://build.fhir.org/ig/HL7/vr-common-library//StructureDefinition-input-race-and-ethnicity-vr.html">Observation - Input Race and Ethnicity Vital Records</a></p></div><p><b>status</b>: final</p><p><b>code</b>: Mother Input Race and Ethnicity <span style="background: LightGoldenRodYellow; margin: 4px; border: 1px solid khaki"> (<a href="https://build.fhir.org/ig/HL7/vr-common-library//CodeSystem-CodeSystem-local-observation-codes-vr.html">Local Observation Codes Vital Records</a>#inputraceandethnicityMother)</span></p><p><b>subject</b>: <a href="#Patient_patient-mother-carmen-teresa-lee">See above (Patient/patient-mother-carmen-teresa-lee: Patient - Mother (Carmen Teresa Lee))</a></p><blockquote><p><b>component</b></p><p><b>code</b>: White <span style="background: LightGoldenRodYellow; margin: 4px; border: 1px solid khaki"> (<a href="https://build.fhir.org/ig/HL7/vr-common-library//CodeSystem-codesystem-vr-component.html">Local Component Codes</a>#White)</span></p><p><b>value</b>: true</p></blockquote><blockquote><p><b>component</b></p><p><b>code</b>: Black Or African American <span style="background: LightGoldenRodYellow; margin: 4px; border: 1px solid khaki"> (<a href="https://build.fhir.org/ig/HL7/vr-common-library//CodeSystem-codesystem-vr-component.html">Local Component Codes</a>#BlackOrAfricanAmerican)</span></p><p><b>value</b>: true</p></blockquote><blockquote><p><b>component</b></p><p><b>code</b>: American Indian Or Alaska Native <span style="background: LightGoldenRodYellow; margin: 4px; border: 1px solid khaki"> (<a href="https://build.fhir.org/ig/HL7/vr-common-library//CodeSystem-codesystem-vr-component.html">Local Component Codes</a>#AmericanIndianOrAlaskanNative)</span></p><p><b>value</b>: true</p></blockquote><blockquote><p><b>component</b></p><p><b>code</b>: Asian Indian <span style="background: LightGoldenRodYellow; margin: 4px; border: 1px solid khaki"> (<a href="https://build.fhir.org/ig/HL7/vr-common-library//CodeSystem-codesystem-vr-component.html">Local Component Codes</a>#AsianIndian)</span></p><p><b>value</b>: false</p></blockquote><blockquote><p><b>component</b></p><p><b>code</b>: Chinese <span style="background: LightGoldenRodYellow; margin: 4px; border: 1px solid khaki"> (<a href="https://build.fhir.org/ig/HL7/vr-common-library//CodeSystem-codesystem-vr-component.html">Local Component Codes</a>#Chinese)</span></p><p><b>value</b>: false</p></blockquote><blockquote><p><b>component</b></p><p><b>code</b>: Filipino <span style="background: LightGoldenRodYellow; margin: 4px; border: 1px solid khaki"> (<a href="https://build.fhir.org/ig/HL7/vr-common-library//CodeSystem-codesystem-vr-component.html">Local Component Codes</a>#Filipino)</span></p><p><b>value</b>: false</p></blockquote><blockquote><p><b>component</b></p><p><b>code</b>: Japanese <span style="background: LightGoldenRodYellow; margin: 4px; border: 1px solid khaki"> (<a href="https://build.fhir.org/ig/HL7/vr-common-library//CodeSystem-codesystem-vr-component.html">Local Component Codes</a>#Japanese)</span></p><p><b>value</b>: false</p></blockquote><blockquote><p><b>component</b></p><p><b>code</b>: Korean <span style="background: LightGoldenRodYellow; margin: 4px; border: 1px solid khaki"> (<a href="https://build.fhir.org/ig/HL7/vr-common-library//CodeSystem-codesystem-vr-component.html">Local Component Codes</a>#Korean)</span></p><p><b>value</b>: false</p></blockquote><blockquote><p><b>component</b></p><p><b>code</b>: Vietnamese <span style="background: LightGoldenRodYellow; margin: 4px; border: 1px solid khaki"> (<a href="https://build.fhir.org/ig/HL7/vr-common-library//CodeSystem-codesystem-vr-component.html">Local Component Codes</a>#Vietnamese)</span></p><p><b>value</b>: false</p></blockquote><blockquote><p><b>component</b></p><p><b>code</b>: Other Asian <span style="background: LightGoldenRodYellow; margin: 4px; border: 1px solid khaki"> (<a href="https://build.fhir.org/ig/HL7/vr-common-library//CodeSystem-codesystem-vr-component.html">Local Component Codes</a>#OtherAsian)</span></p><p><b>value</b>: false</p></blockquote><blockquote><p><b>component</b></p><p><b>code</b>: Native Hawaiian <span style="background: LightGoldenRodYellow; margin: 4px; border: 1px solid khaki"> (<a href="https://build.fhir.org/ig/HL7/vr-common-library//CodeSystem-codesystem-vr-component.html">Local Component Codes</a>#NativeHawaiian)</span></p><p><b>value</b>: false</p></blockquote><blockquote><p><b>component</b></p><p><b>code</b>: Guamanian Or Chamorro <span style="background: LightGoldenRodYellow; margin: 4px; border: 1px solid khaki"> (<a href="https://build.fhir.org/ig/HL7/vr-common-library//CodeSystem-codesystem-vr-component.html">Local Component Codes</a>#GuamanianOrChamorro)</span></p><p><b>value</b>: false</p></blockquote><blockquote><p><b>component</b></p><p><b>code</b>: Samoan <span style="background: LightGoldenRodYellow; margin: 4px; border: 1px solid khaki"> (<a href="https://build.fhir.org/ig/HL7/vr-common-library//CodeSystem-codesystem-vr-component.html">Local Component Codes</a>#Samoan)</span></p><p><b>value</b>: false</p></blockquote><blockquote><p><b>component</b></p><p><b>code</b>: Other Pacific Islander <span style="background: LightGoldenRodYellow; margin: 4px; border: 1px solid khaki"> (<a href="https://build.fhir.org/ig/HL7/vr-common-library//CodeSystem-codesystem-vr-component.html">Local Component Codes</a>#OtherPacificIslander)</span></p><p><b>value</b>: false</p></blockquote><blockquote><p><b>component</b></p><p><b>code</b>: Other Race <span style="background: LightGoldenRodYellow; margin: 4px; border: 1px solid khaki"> (<a href="https://build.fhir.org/ig/HL7/vr-common-library//CodeSystem-codesystem-vr-component.html">Local Component Codes</a>#OtherRace)</span></p><p><b>value</b>: false</p></blockquote><blockquote><p><b>component</b></p><p><b>code</b>: First Other Asian Literal <span style="background: LightGoldenRodYellow; margin: 4px; border: 1px solid khaki"> (<a href="https://build.fhir.org/ig/HL7/vr-common-library//CodeSystem-codesystem-vr-component.html">Local Component Codes</a>#FirstOtherAsianLiteral)</span></p><p><b>value</b>: Malaysian</p></blockquote><blockquote><p><b>component</b></p><p><b>code</b>: First American Indian Or Alaska Native Literal <span style="background: LightGoldenRodYellow; margin: 4px; border: 1px solid khaki"> (<a href="https://build.fhir.org/ig/HL7/vr-common-library//CodeSystem-codesystem-vr-component.html">Local Component Codes</a>#FirstAmericanIndianOrAlaskanNativeLiteral)</span></p><p><b>value</b>: Arikara</p></blockquote><blockquote><p><b>component</b></p><p><b>code</b>: Hispanic Mexican <span style="background: LightGoldenRodYellow; margin: 4px; border: 1px solid khaki"> (<a href="https://build.fhir.org/ig/HL7/vr-common-library//CodeSystem-codesystem-vr-component.html">Local Component Codes</a>#HispanicMexican)</span></p><p><b>value</b>: Yes <span style="background: LightGoldenRodYellow; margin: 4px; border: 1px solid khaki"> (<a href="http://hl7.org/fhir/R4/v2/0136/index.html">v2 Y/N Indicator</a>#Y)</span></p></blockquote><blockquote><p><b>component</b></p><p><b>code</b>: Hispanic Cuban <span style="background: LightGoldenRodYellow; margin: 4px; border: 1px solid khaki"> (<a href="https://build.fhir.org/ig/HL7/vr-common-library//CodeSystem-codesystem-vr-component.html">Local Component Codes</a>#HispanicCuban)</span></p><p><b>value</b>: Yes <span style="background: LightGoldenRodYellow; margin: 4px; border: 1px solid khaki"> (<a href="http://hl7.org/fhir/R4/v2/0136/index.html">v2 Y/N Indicator</a>#Y)</span></p></blockquote><blockquote><p><b>component</b></p><p><b>code</b>: Hispanic Puerto Rican <span style="background: LightGoldenRodYellow; margin: 4px; border: 1px solid khaki"> (<a href="https://build.fhir.org/ig/HL7/vr-common-library//CodeSystem-codesystem-vr-component.html">Local Component Codes</a>#HispanicPuertoRican)</span></p><p><b>value</b>: Yes <span style="background: LightGoldenRodYellow; margin: 4px; border: 1px solid khaki"> (<a href="http://hl7.org/fhir/R4/v2/0136/index.html">v2 Y/N Indicator</a>#Y)</span></p></blockquote><blockquote><p><b>component</b></p><p><b>code</b>: Hispanic Other <span style="background: LightGoldenRodYellow; margin: 4px; border: 1px solid khaki"> (<a href="https://build.fhir.org/ig/HL7/vr-common-library//CodeSystem-codesystem-vr-component.html">Local Component Codes</a>#HispanicOther)</span></p><p><b>value</b>: No <span style="background: LightGoldenRodYellow; margin: 4px; border: 1px solid khaki"> (<a href="http://hl7.org/fhir/R4/v2/0136/index.html">v2 Y/N Indicator</a>#N)</span></p></blockquote></div>
        </text>
        <status value="final"/>
        <code>
          <coding>
            <system value="http://hl7.org/fhir/us/vr-common-library/CodeSystem/CodeSystem-local-observation-codes-vr"/>
            <code value="inputraceandethnicityMother"/>
          </coding>
        </code>
        <subject>
          <reference value="Patient/patient-mother-carmen-teresa-lee"/>
          <display value="Patient - Mother (Carmen Teresa Lee)"/>
        </subject>
        <component>
          <code>
            <coding>
              <system value="http://hl7.org/fhir/us/vr-common-library/CodeSystem/codesystem-vr-component"/>
              <code value="White"/>
            </coding>
          </code>
          <valueBoolean value="true"/>
        </component>
        <component>
          <code>
            <coding>
              <system value="http://hl7.org/fhir/us/vr-common-library/CodeSystem/codesystem-vr-component"/>
              <code value="BlackOrAfricanAmerican"/>
            </coding>
          </code>
          <valueBoolean value="true"/>
        </component>
        <component>
          <code>
            <coding>
              <system value="http://hl7.org/fhir/us/vr-common-library/CodeSystem/codesystem-vr-component"/>
              <code value="AmericanIndianOrAlaskanNative"/>
            </coding>
          </code>
          <valueBoolean value="true"/>
        </component>
        <component>
          <code>
            <coding>
              <system value="http://hl7.org/fhir/us/vr-common-library/CodeSystem/codesystem-vr-component"/>
              <code value="AsianIndian"/>
            </coding>
          </code>
          <valueBoolean value="false"/>
        </component>
        <component>
          <code>
            <coding>
              <system value="http://hl7.org/fhir/us/vr-common-library/CodeSystem/codesystem-vr-component"/>
              <code value="Chinese"/>
            </coding>
          </code>
          <valueBoolean value="false"/>
        </component>
        <component>
          <code>
            <coding>
              <system value="http://hl7.org/fhir/us/vr-common-library/CodeSystem/codesystem-vr-component"/>
              <code value="Filipino"/>
            </coding>
          </code>
          <valueBoolean value="false"/>
        </component>
        <component>
          <code>
            <coding>
              <system value="http://hl7.org/fhir/us/vr-common-library/CodeSystem/codesystem-vr-component"/>
              <code value="Japanese"/>
            </coding>
          </code>
          <valueBoolean value="false"/>
        </component>
        <component>
          <code>
            <coding>
              <system value="http://hl7.org/fhir/us/vr-common-library/CodeSystem/codesystem-vr-component"/>
              <code value="Korean"/>
            </coding>
          </code>
          <valueBoolean value="false"/>
        </component>
        <component>
          <code>
            <coding>
              <system value="http://hl7.org/fhir/us/vr-common-library/CodeSystem/codesystem-vr-component"/>
              <code value="Vietnamese"/>
            </coding>
          </code>
          <valueBoolean value="false"/>
        </component>
        <component>
          <code>
            <coding>
              <system value="http://hl7.org/fhir/us/vr-common-library/CodeSystem/codesystem-vr-component"/>
              <code value="OtherAsian"/>
            </coding>
          </code>
          <valueBoolean value="false"/>
        </component>
        <component>
          <code>
            <coding>
              <system value="http://hl7.org/fhir/us/vr-common-library/CodeSystem/codesystem-vr-component"/>
              <code value="NativeHawaiian"/>
            </coding>
          </code>
          <valueBoolean value="false"/>
        </component>
        <component>
          <code>
            <coding>
              <system value="http://hl7.org/fhir/us/vr-common-library/CodeSystem/codesystem-vr-component"/>
              <code value="GuamanianOrChamorro"/>
            </coding>
          </code>
          <valueBoolean value="false"/>
        </component>
        <component>
          <code>
            <coding>
              <system value="http://hl7.org/fhir/us/vr-common-library/CodeSystem/codesystem-vr-component"/>
              <code value="Samoan"/>
            </coding>
          </code>
          <valueBoolean value="false"/>
        </component>
        <component>
          <code>
            <coding>
              <system value="http://hl7.org/fhir/us/vr-common-library/CodeSystem/codesystem-vr-component"/>
              <code value="OtherPacificIslander"/>
            </coding>
          </code>
          <valueBoolean value="false"/>
        </component>
        <component>
          <code>
            <coding>
              <system value="http://hl7.org/fhir/us/vr-common-library/CodeSystem/codesystem-vr-component"/>
              <code value="OtherRace"/>
            </coding>
          </code>
          <valueBoolean value="false"/>
        </component>
        <component>
          <code>
            <coding>
              <system value="http://hl7.org/fhir/us/vr-common-library/CodeSystem/codesystem-vr-component"/>
              <code value="FirstOtherAsianLiteral"/>
            </coding>
          </code>
          <valueString value="Malaysian"/>
        </component>
        <component>
          <code>
            <coding>
              <system value="http://hl7.org/fhir/us/vr-common-library/CodeSystem/codesystem-vr-component"/>
              <code value="FirstAmericanIndianOrAlaskanNativeLiteral"/>
            </coding>
          </code>
          <valueString value="Arikara"/>
        </component>
        <component>
          <code>
            <coding>
              <system value="http://hl7.org/fhir/us/vr-common-library/CodeSystem/codesystem-vr-component"/>
              <code value="HispanicMexican"/>
            </coding>
          </code>
          <valueCodeableConcept>
            <coding>
              <system value="http://terminology.hl7.org/CodeSystem/v2-0136"/>
              <code value="Y"/>
              <display value="Yes"/>
            </coding>
          </valueCodeableConcept>
        </component>
        <component>
          <code>
            <coding>
              <system value="http://hl7.org/fhir/us/vr-common-library/CodeSystem/codesystem-vr-component"/>
              <code value="HispanicCuban"/>
            </coding>
          </code>
          <valueCodeableConcept>
            <coding>
              <system value="http://terminology.hl7.org/CodeSystem/v2-0136"/>
              <code value="Y"/>
              <display value="Yes"/>
            </coding>
          </valueCodeableConcept>
        </component>
        <component>
          <code>
            <coding>
              <system value="http://hl7.org/fhir/us/vr-common-library/CodeSystem/codesystem-vr-component"/>
              <code value="HispanicPuertoRican"/>
            </coding>
          </code>
          <valueCodeableConcept>
            <coding>
              <system value="http://terminology.hl7.org/CodeSystem/v2-0136"/>
              <code value="Y"/>
              <display value="Yes"/>
            </coding>
          </valueCodeableConcept>
        </component>
        <component>
          <code>
            <coding>
              <system value="http://hl7.org/fhir/us/vr-common-library/CodeSystem/codesystem-vr-component"/>
              <code value="HispanicOther"/>
            </coding>
          </code>
          <valueCodeableConcept>
            <coding>
              <system value="http://terminology.hl7.org/CodeSystem/v2-0136"/>
              <code value="N"/>
              <display value="No"/>
            </coding>
          </valueCodeableConcept>
        </component>
      </Observation>
    </resource>
  </entry>
  <entry>
    <fullUrl value="http://www.example.org/fhir/QuestionnaireResponse/QuestionnaireResponse-patients-fetal-death-carmen-lee"/>
    <resource>
      <QuestionnaireResponse>
        <id value="QuestionnaireResponse-patients-fetal-death-carmen-lee"/>
        <text>
          <status value="generated"/><div xmlns="http://www.w3.org/1999/xhtml"><p><b>Generated Narrative: QuestionnaireResponse</b><a name="QuestionnaireResponse-patients-fetal-death-carmen-lee"> </a></p><div style="display: inline-block; background-color: #d9e0e7; padding: 6px; margin: 4px; border: 1px solid #8da1b4; border-radius: 5px; line-height: 60%"><p style="margin-bottom: 0px">Resource QuestionnaireResponse &quot;QuestionnaireResponse-patients-fetal-death-carmen-lee&quot; </p></div><p><b>questionnaire</b>: <a href="Questionnaire-Questionnaire-patients-fetal-death.html">Questionnaire - Patient's Worksheet for the Report of Fetal Death</a></p><p><b>status</b>: completed</p><p><b>subject</b>: <a href="#Patient_patient-decedent-fetus-not-named">See above (Patient/patient-decedent-fetus-not-named: Patient - Decedent Fetus (Fetus Not Named))</a></p><p><b>source</b>: <a href="#Patient_patient-mother-carmen-teresa-lee">See above (Patient/patient-mother-carmen-teresa-lee: Patient - Mother (Carmen Teresa Lee))</a></p><blockquote><p><b>item</b></p><p><b>linkId</b>: mother-current-legal-name</p><p><b>text</b>: What is your current legal name?</p><blockquote><p><b>item</b></p><p><b>linkId</b>: mother-first-name</p><p><b>text</b>: First</p><blockquote><p><b>answer</b></p></blockquote></blockquote><blockquote><p><b>item</b></p><p><b>linkId</b>: mother-middle-name</p><p><b>text</b>: Middle</p><blockquote><p><b>answer</b></p></blockquote></blockquote><blockquote><p><b>item</b></p><p><b>linkId</b>: mother-last-name</p><p><b>text</b>: Last</p><blockquote><p><b>answer</b></p></blockquote></blockquote></blockquote><blockquote><p><b>item</b></p><p><b>linkId</b>: mother-address</p><p><b>text</b>: Where do you usually live - that is - where is your household/residence located?</p><blockquote><p><b>item</b></p><p><b>linkId</b>: mother-nbr-street</p><p><b>text</b>: Complete number and street (do not enter rural route numbers)</p><blockquote><p><b>answer</b></p></blockquote></blockquote><blockquote><p><b>item</b></p><p><b>linkId</b>: mother-city</p><p><b>text</b>: City, Town, or Location</p></blockquote><blockquote><p><b>item</b></p><p><b>linkId</b>: mother-state</p><p><b>text</b>: State (or U.S. Territory, Canadian Province)</p><blockquote><p><b>answer</b></p></blockquote></blockquote><blockquote><p><b>item</b></p><p><b>linkId</b>: mother-zip</p><p><b>text</b>: Zip Code</p><blockquote><p><b>answer</b></p></blockquote></blockquote></blockquote><blockquote><p><b>item</b></p><p><b>linkId</b>: inside-city-limits</p><p><b>text</b>: Is this household inside city limits (inside the incorporated limits of the city, town, or location where you live)?</p><h3>Answers</h3><table class="grid"><tr><td style="display: none">-</td><td><b>Value[x]</b></td></tr><tr><td style="display: none">*</td><td>No (Details: http://terminology.hl7.org/CodeSystem/v2-0136 code N = 'No', stated as 'No')</td></tr></table></blockquote><blockquote><p><b>item</b></p><p><b>linkId</b>: mother-mail</p><p><b>text</b>: What is your mailing address</p><blockquote><p><b>item</b></p><p><b>linkId</b>: mother-mail-same</p><p><b>text</b>: Same as residence [Go to next question]</p><blockquote><p><b>answer</b></p></blockquote></blockquote></blockquote><blockquote><p><b>item</b></p><p><b>linkId</b>: mother-dob</p><p><b>text</b>: What is your date of birth?</p><h3>Answers</h3><table class="grid"><tr><td style="display: none">-</td><td><b>Value[x]</b></td></tr><tr><td style="display: none">*</td><td>1986-02-15</td></tr></table></blockquote><blockquote><p><b>item</b></p><p><b>linkId</b>: mother-birthplace</p><p><b>text</b>: In what State, U.S. territory, or foreign country were you born? Please specify one of the following:</p><blockquote><p><b>item</b></p><p><b>linkId</b>: mother-birthplace-territory</p><p><b>text</b>: or U.S. territory, i.e., Puerto Rico, U.S. Virgin Islands, Guam, American Samoa or Norther Marianas</p><blockquote><p><b>answer</b></p></blockquote></blockquote></blockquote><blockquote><p><b>item</b></p><p><b>linkId</b>: mother-education</p><p><b>text</b>: What is the highest level of schooling that you have completed at the time of delivery? (Check the box that best describes your education. If you are currently enrolled, check the box that indicates the previous grade or highest degree received).</p><h3>Answers</h3><table class="grid"><tr><td style="display: none">-</td><td><b>Value[x]</b></td></tr><tr><td style="display: none">*</td><td>Some secondary or high school education (Details: http://terminology.hl7.org/CodeSystem/v3-EducationLevel code SEC = 'Some secondary or high school education', stated as 'Some secondary or high school education')</td></tr></table></blockquote><blockquote><p><b>item</b></p><p><b>linkId</b>: mother-ethnicity</p><h3>Answers</h3><table class="grid"><tr><td style="display: none">-</td><td><b>Value[x]</b></td></tr><tr><td style="display: none">*</td><td>true</td></tr></table></blockquote><blockquote><p><b>item</b></p><p><b>linkId</b>: mother-ethnicity-mexican</p><h3>Answers</h3><table class="grid"><tr><td style="display: none">-</td><td><b>Value[x]</b></td></tr><tr><td style="display: none">*</td><td>true</td></tr></table></blockquote><blockquote><p><b>item</b></p><p><b>linkId</b>: mother-ethnicity-puerto-rican</p><h3>Answers</h3><table class="grid"><tr><td style="display: none">-</td><td><b>Value[x]</b></td></tr><tr><td style="display: none">*</td><td>true</td></tr></table></blockquote><blockquote><p><b>item</b></p><p><b>linkId</b>: mother-ethnicity-cuban</p><h3>Answers</h3><table class="grid"><tr><td style="display: none">-</td><td><b>Value[x]</b></td></tr><tr><td style="display: none">*</td><td>true</td></tr></table></blockquote><blockquote><p><b>item</b></p><p><b>linkId</b>: mother-ethnicity-other</p><h3>Answers</h3><table class="grid"><tr><td style="display: none">-</td><td><b>Value[x]</b></td></tr><tr><td style="display: none">*</td><td>false</td></tr></table></blockquote><blockquote><p><b>item</b></p><p><b>linkId</b>: mother-race</p><blockquote><p><b>item</b></p><p><b>linkId</b>: mother-race-black-or-aa</p><blockquote><p><b>answer</b></p></blockquote></blockquote></blockquote><blockquote><p><b>item</b></p><p><b>linkId</b>: father-current-legal-name</p><p><b>text</b>: What is the current legal name of your baby's father?</p><blockquote><p><b>item</b></p><p><b>linkId</b>: father-first-name</p><p><b>text</b>: First</p><blockquote><p><b>answer</b></p></blockquote></blockquote><blockquote><p><b>item</b></p><p><b>linkId</b>: father-middle-name</p><p><b>text</b>: Middle</p><blockquote><p><b>answer</b></p></blockquote></blockquote><blockquote><p><b>item</b></p><p><b>linkId</b>: father-last-name</p><p><b>text</b>: Last</p><blockquote><p><b>answer</b></p></blockquote></blockquote></blockquote><blockquote><p><b>item</b></p><p><b>linkId</b>: father-dob</p><p><b>text</b>: What is the father's date of birth?</p><h3>Answers</h3><table class="grid"><tr><td style="display: none">-</td><td><b>Value[x]</b></td></tr><tr><td style="display: none">*</td><td>1984-02-27</td></tr></table></blockquote><blockquote><p><b>item</b></p><p><b>linkId</b>: father-birthplace</p><p><b>text</b>: In what State, U.S. territory, or foreign country was the father born? Please specify one of the following:</p><blockquote><p><b>item</b></p><p><b>linkId</b>: father-birthplace-state</p><p><b>text</b>: State</p><blockquote><p><b>answer</b></p></blockquote></blockquote></blockquote><blockquote><p><b>item</b></p><p><b>linkId</b>: receive-wic</p><p><b>text</b>: Did you receive WIC (Women, Infants and Children) food for yourself during this pregnancy?</p><h3>Answers</h3><table class="grid"><tr><td style="display: none">-</td><td><b>Value[x]</b></td></tr><tr><td style="display: none">*</td><td>No (Details: http://terminology.hl7.org/CodeSystem/v2-0136 code N = 'No', stated as 'No')</td></tr></table></blockquote><blockquote><p><b>item</b></p><p><b>linkId</b>: mothers-height</p><p><b>text</b>: What is your height?</p><blockquote><p><b>item</b></p><p><b>linkId</b>: mothers-height-inches</p><p><b>text</b>: Inches</p><blockquote><p><b>answer</b></p></blockquote></blockquote></blockquote><blockquote><p><b>item</b></p><p><b>linkId</b>: mothers-prepregnancy-weight</p><p><b>text</b>: lbs</p><h3>Answers</h3><table class="grid"><tr><td style="display: none">-</td><td><b>Value[x]</b></td></tr><tr><td style="display: none">*</td><td>180 [lb_av]<span style="background: LightGoldenRodYellow"> (Details: UCUM code [lb_av] = '[lb_av]')</span></td></tr></table></blockquote><blockquote><p><b>item</b></p><p><b>linkId</b>: mothers-smoking</p><p><b>text</b>: How many cigarettes OR packs of cigarettes did you smoke on an average day during each of the following time periods? If you NEVER smoked, enter zero for each time period.</p><blockquote><p><b>item</b></p><p><b>linkId</b>: mothers-smoking-3-months-prior</p><p><b>text</b>: Three months before pregnancy</p><blockquote><p><b>item</b></p></blockquote><blockquote><p><b>item</b></p></blockquote></blockquote><blockquote><p><b>item</b></p><p><b>linkId</b>: mothers-smoking-trimester-1</p><p><b>text</b>: First three months of pregnancy</p><blockquote><p><b>item</b></p></blockquote><blockquote><p><b>item</b></p></blockquote></blockquote><blockquote><p><b>item</b></p><p><b>linkId</b>: mothers-smoking-trimester-2</p><p><b>text</b>: Second three months of pregnancy</p><blockquote><p><b>item</b></p></blockquote><blockquote><p><b>item</b></p></blockquote></blockquote><blockquote><p><b>item</b></p><p><b>linkId</b>: mothers-smoking-trimester-3</p><p><b>text</b>: Third trimester of pregnancy</p><blockquote><p><b>item</b></p></blockquote><blockquote><p><b>item</b></p></blockquote></blockquote></blockquote></div>
        </text>
        <questionnaire value="http://hl7.org/fhir/us/bfdr/Questionnaire/Questionnaire-patients-fetal-death"/>
        <status value="completed"/>
        <subject>
          <reference value="Patient/patient-decedent-fetus-not-named"/>
          <display value="Patient - Decedent Fetus (Fetus Not Named)"/>
        </subject>
        <source>
          <reference value="Patient/patient-mother-carmen-teresa-lee"/>
          <display value="Patient - Mother (Carmen Teresa Lee)"/>
        </source>
        <item>
          <linkId value="mother-current-legal-name"/>
          <text value="What is your current legal name?"/>
          <item>
            <linkId value="mother-first-name"/>
            <text value="First"/>
            <answer>
              <valueString value="Carmen"/>
            </answer>
          </item>
          <item>
            <linkId value="mother-middle-name"/>
            <text value="Middle"/>
            <answer>
              <valueString value="Teresa"/>
            </answer>
          </item>
          <item>
            <linkId value="mother-last-name"/>
            <text value="Last"/>
            <answer>
              <valueString value="Lee"/>
            </answer>
          </item>
        </item>
        <item>
          <linkId value="mother-address"/>
          <text value="Where do you usually live - that is - where is your household/residence located?"/>
          <item>
            <linkId value="mother-nbr-street"/>
            <text value="Complete number and street (do not enter rural route numbers)"/>
            <answer>
              <valueString value="3670 Miller Road"/>
            </answer>
          </item>
          <item>
            <linkId value="mother-city"/>
            <text value="City, Town, or Location"/>
          </item>
          <item>
            <linkId value="mother-state"/>
            <text value="State (or U.S. Territory, Canadian Province)"/>
            <answer>
              <valueString value="MI"/>
            </answer>
          </item>
          <item>
            <linkId value="mother-zip"/>
            <text value="Zip Code"/>
            <answer>
              <valueString value="48103"/>
            </answer>
          </item>
        </item>
        <item>
          <linkId value="inside-city-limits"/>
          <text value="Is this household inside city limits (inside the incorporated limits of the city, town, or location where you live)?"/>
          <answer>
            <valueCoding>
              <system value="http://terminology.hl7.org/CodeSystem/v2-0136"/>
              <code value="N"/>
              <display value="No"/>
            </valueCoding>
          </answer>
        </item>
        <item>
          <linkId value="mother-mail"/>
          <text value="What is your mailing address"/>
          <item>
            <linkId value="mother-mail-same"/>
            <text value="Same as residence [Go to next question]"/>
            <answer>
              <valueBoolean value="true"/>
            </answer>
          </item>
        </item>
        <item>
          <linkId value="mother-dob"/>
          <text value="What is your date of birth?"/>
          <answer>
            <valueDate value="1986-02-15"/>
          </answer>
        </item>
        <item>
          <linkId value="mother-birthplace"/>
          <text value="In what State, U.S. territory, or foreign country were you born? Please specify one of the following:"/>
          <item>
            <linkId value="mother-birthplace-territory"/>
            <text value="or U.S. territory, i.e., Puerto Rico, U.S. Virgin Islands, Guam, American Samoa or Norther Marianas"/>
            <answer>
              <valueString value="PR"/>
            </answer>
          </item>
        </item>
        <item>
          <linkId value="mother-education"/>
          <text value="What is the highest level of schooling that you have completed at the time of delivery? (Check the box that best describes your education. If you are currently enrolled, check the box that indicates the previous grade or highest degree received)."/>
          <answer>
            <valueCoding>
              <system value="http://terminology.hl7.org/CodeSystem/v3-EducationLevel"/>
              <code value="SEC"/>
              <display value="Some secondary or high school education"/>
            </valueCoding>
          </answer>
        </item>
        <item>
          <linkId value="mother-ethnicity"/>
          <answer>
            <valueBoolean value="true"/>
          </answer>
        </item>
        <item>
          <linkId value="mother-ethnicity-mexican"/>
          <answer>
            <valueBoolean value="true"/>
          </answer>
        </item>
        <item>
          <linkId value="mother-ethnicity-puerto-rican"/>
          <answer>
            <valueBoolean value="true"/>
          </answer>
        </item>
        <item>
          <linkId value="mother-ethnicity-cuban"/>
          <answer>
            <valueBoolean value="true"/>
          </answer>
        </item>
        <item>
          <linkId value="mother-ethnicity-other"/>
          <answer>
            <valueBoolean value="false"/>
          </answer>
        </item>
        <item>
          <linkId value="mother-race"/>
          <item>
            <linkId value="mother-race-black-or-aa"/>
            <answer>
              <valueBoolean value="true"/>
            </answer>
          </item>
        </item>
        <item>
          <linkId value="father-current-legal-name"/>
          <text value="What is the current legal name of your baby's father?"/>
          <item>
            <linkId value="father-first-name"/>
            <text value="First"/>
            <answer>
              <valueString value="Tom"/>
            </answer>
          </item>
          <item>
            <linkId value="father-middle-name"/>
            <text value="Middle"/>
            <answer>
              <valueString value="Yan"/>
            </answer>
          </item>
          <item>
            <linkId value="father-last-name"/>
            <text value="Last"/>
            <answer>
              <valueString value="Lee"/>
            </answer>
          </item>
        </item>
        <item>
          <linkId value="father-dob"/>
          <text value="What is the father's date of birth?"/>
          <answer>
            <valueDate value="1984-02-27"/>
          </answer>
        </item>
        <item>
          <linkId value="father-birthplace"/>
          <text value="In what State, U.S. territory, or foreign country was the father born? Please specify one of the following:"/>
          <item>
            <linkId value="father-birthplace-state"/>
            <text value="State"/>
            <answer>
              <valueString value="NY"/>
            </answer>
          </item>
        </item>
        <item>
          <linkId value="receive-wic"/>
          <text value="Did you receive WIC (Women, Infants and Children) food for yourself during this pregnancy?"/>
          <answer>
            <valueCoding>
              <system value="http://terminology.hl7.org/CodeSystem/v2-0136"/>
              <code value="N"/>
              <display value="No"/>
            </valueCoding>
          </answer>
        </item>
        <item>
          <linkId value="mothers-height"/>
          <text value="What is your height?"/>
          <item>
            <linkId value="mothers-height-inches"/>
            <text value="Inches"/>
            <answer>
              <valueQuantity>
                <value value="65"/>
                <unit value="[in_i]"/>
                <system value="http://unitsofmeasure.org"/>
                <code value="[in_i]"/>
              </valueQuantity>
            </answer>
          </item>
        </item>
        <item>
          <linkId value="mothers-prepregnancy-weight"/>
          <text value="lbs"/>
          <answer>
            <valueQuantity>
              <value value="180"/>
              <unit value="[lb_av]"/>
              <system value="http://unitsofmeasure.org"/>
              <code value="[lb_av]"/>
            </valueQuantity>
          </answer>
        </item>
        <item>
          <linkId value="mothers-smoking"/>
          <text value="How many cigarettes OR packs of cigarettes did you smoke on an average day during each of the following time periods? If you NEVER smoked, enter zero for each time period."/>
          <item>
            <linkId value="mothers-smoking-3-months-prior"/>
            <text value="Three months before pregnancy"/>
            <item>
              <linkId value="mothers-smoking-3-months-prior-cig"/>
              <text value="# of cigarettes*"/>
              <answer>
                <valueInteger value="0"/>
              </answer>
            </item>
            <item>
              <linkId value="mothers-smoking-3-months-prior-pck"/>
              <text value="# of packs"/>
              <answer>
                <valueInteger value="0"/>
              </answer>
            </item>
          </item>
          <item>
            <linkId value="mothers-smoking-trimester-1"/>
            <text value="First three months of pregnancy"/>
            <item>
              <linkId value="mothers-smoking-trimester-1-cig"/>
              <text value="# of cigarettes*"/>
              <answer>
                <valueInteger value="0"/>
              </answer>
            </item>
            <item>
              <linkId value="mothers-smoking-trimester-1-pck"/>
              <text value="# of packs"/>
              <answer>
                <valueInteger value="0"/>
              </answer>
            </item>
          </item>
          <item>
            <linkId value="mothers-smoking-trimester-2"/>
            <text value="Second three months of pregnancy"/>
            <item>
              <linkId value="mothers-smoking-trimester-2-cig"/>
              <text value="# of cigarettes*"/>
              <answer>
                <valueInteger value="0"/>
              </answer>
            </item>
            <item>
              <linkId value="mothers-smoking-trimester-2-pck"/>
              <text value="# of packs"/>
              <answer>
                <valueInteger value="0"/>
              </answer>
            </item>
          </item>
          <item>
            <linkId value="mothers-smoking-trimester-3"/>
            <text value="Third trimester of pregnancy"/>
            <item>
              <linkId value="mothers-smoking-trimester-3-cig"/>
              <text value="# of cigarettes*"/>
              <answer>
                <valueInteger value="0"/>
              </answer>
            </item>
            <item>
              <linkId value="mothers-smoking-trimester-3-pck"/>
              <text value="# of packs"/>
              <answer>
                <valueInteger value="0"/>
              </answer>
            </item>
          </item>
        </item>
      </QuestionnaireResponse>
    </resource>
  </entry>
  <entry>
    <fullUrl value="http://www.example.org/fhir/Practitioner/practitioner-vital-records-janet-seito"/>
    <resource>
      <Practitioner>
        <id value="practitioner-vital-records-janet-seito"/>
        <meta>
          <profile value="http://hl7.org/fhir/us/vr-common-library/StructureDefinition/Practitioner-vr"/>
        </meta>
        <text>
          <status value="extensions"/><div xmlns="http://www.w3.org/1999/xhtml"><p><b>Generated Narrative: Practitioner</b><a name="practitioner-vital-records-janet-seito"> </a></p><div style="display: inline-block; background-color: #d9e0e7; padding: 6px; margin: 4px; border: 1px solid #8da1b4; border-radius: 5px; line-height: 60%"><p style="margin-bottom: 0px">Resource Practitioner &quot;practitioner-vital-records-janet-seito&quot; </p><p style="margin-bottom: 0px">Profile: <a href="https://build.fhir.org/ig/HL7/vr-common-library//StructureDefinition-Practitioner-vr.html">Practitioner - Vital Records</a></p></div><p><b>Practitioner Role - Birth Attendant</b>: attendant</p><p><b>Practitioner Role - Certifier</b>: certifier</p><p><b>identifier</b>: id: <a href="http://terminology.hl7.org/5.0.0/NamingSystem-npi.html">#</a>223347044</p><p><b>name</b>: Janet Seito</p><h3>Qualifications</h3><table class="grid"><tr><td style="display: none">-</td><td><b>Code</b></td></tr><tr><td style="display: none">*</td><td>Osteopath (occupation) <span style="background: LightGoldenRodYellow; margin: 4px; border: 1px solid khaki"> (<a href="https://browser.ihtsdotools.org/">SNOMED CT</a>#76231001)</span></td></tr></table></div>
        </text>
        <extension url="http://hl7.org/fhir/us/bfdr/StructureDefinition/practitioner-role-birth-attendant">
          <valueCode value="attendant"/>
        </extension>
        <extension url="http://hl7.org/fhir/us/bfdr/StructureDefinition/practitioner-role-birth-certifier">
          <valueCode value="certifier"/>
        </extension>
        <identifier>
          <system value="http://hl7.org/fhir/sid/us-npi"/>
          <value value="223347044"/>
        </identifier>
        <name>
          <text value="Janet Seito"/>
          <family value="Janet"/>
          <given value="Seito"/>
          <suffix value="D.O."/>
        </name>
        <qualification>
          <code>
            <coding>
              <system value="http://snomed.info/sct"/>
              <code value="76231001"/>
              <display value="Osteopath (occupation)"/>
            </coding>
          </code>
        </qualification>
      </Practitioner>
    </resource>
  </entry>
  <entry>
    <fullUrl value="http://www.example.org/fhir/Location/location-south-hospital"/>
    <resource>
      <Location>
        <id value="location-south-hospital"/>
        <meta>
          <profile value="http://hl7.org/fhir/us/bfdr/StructureDefinition/Location-bfdr"/>
        </meta>
        <text>
          <status value="generated"/><div xmlns="http://www.w3.org/1999/xhtml"><p><b>Generated Narrative: Location</b><a name="location-south-hospital"> </a></p><div style="display: inline-block; background-color: #d9e0e7; padding: 6px; margin: 4px; border: 1px solid #8da1b4; border-radius: 5px; line-height: 60%"><p style="margin-bottom: 0px">Resource Location &quot;location-south-hospital&quot; </p><p style="margin-bottom: 0px">Profile: <a href="StructureDefinition-Location-bfdr.html">Birth and Fetal Death Location</a></p></div><p><b>identifier</b>: id: <a href="http://terminology.hl7.org/5.0.0/NamingSystem-npi.html">#</a>116441967701</p><p><b>status</b>: active</p><p><b>name</b>: South Hospital</p><p><b>type</b>: Hospital <span style="background: LightGoldenRodYellow; margin: 4px; border: 1px solid khaki"> (<a href="http://terminology.hl7.org/6.0.2/CodeSystem-v3-RoleCode.html">RoleCode</a>#HOSP)</span>, Birth Location <span style="background: LightGoldenRodYellow; margin: 4px; border: 1px solid khaki"> (<a href="CodeSystem-CodeSystem-local-bfdr-codes.html">Local BFDR Codes</a>#loc_birth)</span></p><p><b>address</b>: 2100 North Ave Salt Lake City UT 84116 US </p><h3>Positions</h3><table class="grid"><tr><td style="display: none">-</td><td><b>Longitude</b></td><td><b>Latitude</b></td></tr><tr><td style="display: none">*</td><td>40.8</td><td>111.9</td></tr></table><p><b>managingOrganization</b>: <a href="#Organization_organization-south-hospital">See above (Organization/organization-south-hospital: Organization - South Hospital)</a></p></div>
        </text>
        <identifier>
          <extension url="http://hl7.org/fhir/us/bfdr/StructureDefinition/Extension-jurisdictional-facility-identifier">
            <valueString value="UT12"/>
          </extension>
          <system value="http://hl7.org/fhir/sid/us-npi"/>
          <value value="116441967701"/>
        </identifier>
        <status value="active"/>
        <name value="South Hospital"/>
        <type>
          <coding>
            <system value="http://terminology.hl7.org/CodeSystem/v3-RoleCode"/>
            <code value="HOSP"/>
            <display value="Hospital"/>
          </coding>
        </type>
        <type>
          <coding>
            <system value="http://hl7.org/fhir/us/bfdr/CodeSystem/CodeSystem-local-bfdr-codes"/>
            <code value="loc_birth"/>
            <display value="Birth Location"/>
          </coding>
        </type>
        <address>
          <line value="2100 North Ave"/>
          <city value="Salt Lake City"/>
          <district value="Made Up"/>
          <state value="UT"/>
          <postalCode value="84116"/>
          <country value="US"/>
        </address>
        <position>
          <longitude value="40.8"/>
          <latitude value="111.9"/>
        </position>
        <managingOrganization>
          <reference value="Organization/organization-south-hospital"/>
          <display value="Organization - South Hospital"/>
        </managingOrganization>
      </Location>
    </resource>
  </entry>
  <entry>
    <fullUrl value="http://www.example.org/fhir/Organization/organization-south-hospital"/>
    <resource>
      <Organization>
        <id value="organization-south-hospital"/>
        <text>
          <status value="generated"/><div xmlns="http://www.w3.org/1999/xhtml"><p><b>Generated Narrative: Organization</b><a name="organization-south-hospital"> </a></p><div style="display: inline-block; background-color: #d9e0e7; padding: 6px; margin: 4px; border: 1px solid #8da1b4; border-radius: 5px; line-height: 60%"><p style="margin-bottom: 0px">Resource Organization &quot;organization-south-hospital&quot; </p></div><p><b>identifier</b>: id: <a href="http://terminology.hl7.org/5.0.0/NamingSystem-npi.html">#</a>5555512</p><p><b>active</b>: true</p><p><b>type</b>: Hospital <span style="background: LightGoldenRodYellow; margin: 4px; border: 1px solid khaki"> (<a href="http://terminology.hl7.org/6.0.2/CodeSystem-v3-RoleCode.html">RoleCode</a>#HOSP)</span></p><p><b>name</b>: South Hospital</p><p><b>telecom</b>: <a href="tel:+1-555-555-1111">+1-555-555-1111</a>, <a href="mailto:mail@southhospital.com">mail@southhospital.com</a></p><p><b>address</b>: 2100 North Ave Salt Lake City UT 84116 US </p></div>
        </text>
        <identifier>
          <system value="http://hl7.org/fhir/sid/us-npi"/>
          <value value="5555512"/>
        </identifier>
        <active value="true"/>
        <type>
          <coding>
            <system value="http://terminology.hl7.org/CodeSystem/v3-RoleCode"/>
            <code value="HOSP"/>
            <display value="Hospital"/>
          </coding>
        </type>
        <name value="South Hospital"/>
        <telecom>
          <system value="phone"/>
          <value value="+1-555-555-1111"/>
        </telecom>
        <telecom>
          <system value="email"/>
          <value value="mail@southhospital.com"/>
        </telecom>
        <address>
          <line value="2100 North Ave"/>
          <city value="Salt Lake City"/>
          <state value="UT"/>
          <postalCode value="84116"/>
          <country value="US"/>
        </address>
      </Organization>
    </resource>
  </entry>
  <entry>
    <fullUrl value="http://www.example.org/fhir/RelatedPerson/relatedperson-mother-carmen-teresa-lee"/>
    <resource>
      <RelatedPerson>
        <id value="relatedperson-mother-carmen-teresa-lee"/>
        <meta>
          <profile value="http://hl7.org/fhir/us/vr-common-library/StructureDefinition/RelatedPerson-mother-vr"/>
        </meta>
        <text>
          <status value="generated"/><div xmlns="http://www.w3.org/1999/xhtml"><p><b>Generated Narrative: RelatedPerson</b><a name="relatedperson-mother-carmen-teresa-lee"> </a></p><div style="display: inline-block; background-color: #d9e0e7; padding: 6px; margin: 4px; border: 1px solid #8da1b4; border-radius: 5px; line-height: 60%"><p style="margin-bottom: 0px">Resource RelatedPerson &quot;relatedperson-mother-carmen-teresa-lee&quot; </p><p style="margin-bottom: 0px">Profile: <a href="https://build.fhir.org/ig/HL7/vr-common-library//StructureDefinition-RelatedPerson-mother-vr.html">RelatedPerson - Mother Vital Records</a></p></div><p><b>active</b>: true</p><p><b>patient</b>: <a href="#Patient_patient-decedent-fetus-not-named">See above (Patient/patient-decedent-fetus-not-named: Patient - Decedent Fetus (Fetus Not Named))</a></p><p><b>relationship</b>: Gestational Mother <span style="background: LightGoldenRodYellow; margin: 4px; border: 1px solid khaki"> (<a href="http://terminology.hl7.org/6.0.2/CodeSystem-v3-RoleCode.html">RoleCode</a>#GESTM &quot;gestational mother&quot;)</span></p><p><b>name</b>: Carmen Teresa Lee (OFFICIAL)</p><p><b>gender</b>: female</p><p><b>birthDate</b>: 1986-02-15</p></div>
        </text>
        <active value="true"/>
        <patient>
          <reference value="Patient/patient-decedent-fetus-not-named"/>
          <display value="Patient - Decedent Fetus (Fetus Not Named)"/>
        </patient>
        <relationship>
          <coding>
            <system value="http://terminology.hl7.org/CodeSystem/v3-RoleCode"/>
            <code value="GESTM"/>
            <display value="gestational mother"/>
          </coding>
          <text value="Gestational Mother"/>
        </relationship>
        <name>
          <use value="official"/>
          <family value="Lee"/>
          <given value="Carmen"/>
          <given value="Teresa"/>
        </name>
        <gender value="female"/>
        <birthDate value="1986-02-15"/>
      </RelatedPerson>
    </resource>
  </entry>
  <entry>
    <fullUrl value="http://www.example.org/fhir/RelatedPerson/relatedperson-father-natural-tom-yan-lee"/>
    <resource>
      <RelatedPerson>
        <id value="relatedperson-father-natural-tom-yan-lee"/>
        <meta>
          <profile value="http://hl7.org/fhir/us/vr-common-library/StructureDefinition/RelatedPerson-father-natural-vr"/>
        </meta>
        <text>
          <status value="extensions"/><div xmlns="http://www.w3.org/1999/xhtml"><p><b>Generated Narrative: RelatedPerson</b><a name="relatedperson-father-natural-tom-yan-lee"> </a></p><div style="display: inline-block; background-color: #d9e0e7; padding: 6px; margin: 4px; border: 1px solid #8da1b4; border-radius: 5px; line-height: 60%"><p style="margin-bottom: 0px">Resource RelatedPerson &quot;relatedperson-father-natural-tom-yan-lee&quot; </p><p style="margin-bottom: 0px">Profile: <a href="https://build.fhir.org/ig/HL7/vr-common-library//StructureDefinition-RelatedPerson-father-natural-vr.html">RelatedPerson - Father Natural Vital Records</a></p></div><p><b>RelatedPerson Birth Place Vital Records</b>: NY </p><p><b>active</b>: true</p><p><b>patient</b>: <a href="#Patient_patient-decedent-fetus-not-named">See above (Patient/patient-decedent-fetus-not-named: Patient - Decedent Fetus (Fetus Not Named))</a></p><p><b>relationship</b>: Natural Father <span style="background: LightGoldenRodYellow; margin: 4px; border: 1px solid khaki"> (<a href="http://terminology.hl7.org/6.0.2/CodeSystem-v3-RoleCode.html">RoleCode</a>#NFTH &quot;natural father&quot;)</span></p><p><b>name</b>: Tom Yan Lee (OFFICIAL)</p><p><b>gender</b>: male</p><p><b>birthDate</b>: 1984-02-27</p></div>
        </text>
        <extension url="http://hl7.org/fhir/us/vr-common-library/StructureDefinition/Extension-relatedperson-birthplace-vr">
          <valueAddress>
            <state value="NY"/>
          </valueAddress>
        </extension>
        <active value="true"/>
        <patient>
          <reference value="Patient/patient-decedent-fetus-not-named"/>
          <display value="Patient - Decedent Fetus (Fetus Not Named)"/>
        </patient>
        <relationship>
          <coding>
            <system value="http://terminology.hl7.org/CodeSystem/v3-RoleCode"/>
            <code value="NFTH"/>
            <display value="natural father"/>
          </coding>
          <text value="Natural Father"/>
        </relationship>
        <name>
          <use value="official"/>
          <family value="Lee"/>
          <given value="Tom"/>
          <given value="Yan"/>
        </name>
        <gender value="male"/>
        <birthDate value="1984-02-27"/>
      </RelatedPerson>
    </resource>
  </entry>
  <entry>
    <fullUrl value="http://www.example.org/fhir/Practitioner/practitioner-vital-records-jessica-leung"/>
    <resource>
      <Practitioner>
        <id value="practitioner-vital-records-jessica-leung"/>
        <meta>
          <profile value="http://hl7.org/fhir/us/vr-common-library/StructureDefinition/Practitioner-vr"/>
        </meta>
        <text>
          <status value="generated"/><div xmlns="http://www.w3.org/1999/xhtml"><p><b>Generated Narrative: Practitioner</b><a name="practitioner-vital-records-jessica-leung"> </a></p><div style="display: inline-block; background-color: #d9e0e7; padding: 6px; margin: 4px; border: 1px solid #8da1b4; border-radius: 5px; line-height: 60%"><p style="margin-bottom: 0px">Resource Practitioner &quot;practitioner-vital-records-jessica-leung&quot; </p><p style="margin-bottom: 0px">Profile: <a href="https://build.fhir.org/ig/HL7/vr-common-library//StructureDefinition-Practitioner-vr.html">Practitioner - Vital Records</a></p></div><p><b>identifier</b>: id: <a href="http://terminology.hl7.org/5.0.0/NamingSystem-npi.html">#</a>223347055</p><p><b>name</b>: Leung Jessica </p><h3>Qualifications</h3><table class="grid"><tr><td style="display: none">-</td><td><b>Code</b></td></tr><tr><td style="display: none">*</td><td>Birth Clerk <span style="background: LightGoldenRodYellow; margin: 4px; border: 1px solid khaki"> (<a href="http://terminology.hl7.org/6.0.2/CodeSystem-v3-NullFlavor.html">NullFlavor</a>#OTH &quot;other&quot;)</span></td></tr></table></div>
        </text>
        <identifier>
          <system value="http://hl7.org/fhir/sid/us-npi"/>
          <value value="223347055"/>
        </identifier>
        <name>
          <family value="Jessica"/>
          <given value="Leung"/>
        </name>
        <qualification>
          <code>
            <coding>
              <system value="http://terminology.hl7.org/CodeSystem/v3-NullFlavor"/>
              <code value="OTH"/>
              <display value="other"/>
            </coding>
            <text value="Birth Clerk"/>
          </code>
        </qualification>
      </Practitioner>
    </resource>
  </entry>
</Bundle>