<?xml version="1.0" encoding="UTF-8"?>

<Bundle xmlns="http://hl7.org/fhir">
  <id value="bundle-provider-live-birth-babyg-quinn"/>
  <meta>
    <profile value="http://hl7.org/fhir/us/bfdr/StructureDefinition/Bundle-document-birth-report"/>
  </meta>
  <identifier>
    <extension url="http://hl7.org/fhir/us/vr-common-library/StructureDefinition/CertificateNumber">
      <valueString value="15075"/>
    </extension>
    <extension url="http://hl7.org/fhir/us/vr-common-library/StructureDefinition/AuxiliaryStateIdentifier1">
      <valueString value="444455555"/>
    </extension>
    <system value="http://hl7.org/fhir/us/vr-common-library/CodeSystem/codesystem-ije-vr"/>
    <value value="2019NJ15075"/>
  </identifier>
  <type value="document"/>
  <timestamp value="2019-02-11T02:05:44.434Z"/>
  <entry>
    <fullUrl value="http://www.example.org/fhir/Composition/composition-provider-live-birth-babyg-quinn"/>
    <resource>
      <Composition>
        <id value="composition-provider-live-birth-babyg-quinn"/>
        <meta>
          <profile value="http://hl7.org/fhir/us/bfdr/StructureDefinition/Composition-provider-live-birth-report"/>
        </meta>
        <text>
          <status value="generated"/><div xmlns="http://www.w3.org/1999/xhtml"><p><b>Generated Narrative: Composition</b><a name="composition-provider-live-birth-babyg-quinn"> </a></p><div style="display: inline-block; background-color: #d9e0e7; padding: 6px; margin: 4px; border: 1px solid #8da1b4; border-radius: 5px; line-height: 60%"><p style="margin-bottom: 0px">Resource Composition &quot;composition-provider-live-birth-babyg-quinn&quot; </p><p style="margin-bottom: 0px">Profile: <a href="StructureDefinition-Composition-provider-live-birth-report.html">Composition - Provider Live Birth Report</a></p></div><p><b>status</b>: final</p><p><b>type</b>: U.S. standard certificate of live birth - 2003 revision <span style="background: LightGoldenRodYellow; margin: 4px; border: 1px solid khaki"> (<a href="https://loinc.org/">LOINC</a>#68998-4)</span></p><p><b>encounter</b>: <a href="#Encounter_encounter-birth-babyg-quinn">See above (Encounter/encounter-birth-babyg-quinn)</a></p><p><b>date</b>: 2019-02-12</p><p><b>author</b>: <a href="#Practitioner_practitioner-vital-records-avery-jones">See above (Practitioner/practitioner-vital-records-avery-jones)</a></p><p><b>title</b>: Provider supplied live birth report Document</p></div>
        </text>
        <status value="final"/>
        <type>
          <coding>
            <system value="http://loinc.org"/>
            <code value="68998-4"/>
            <display value="U.S. standard certificate of live birth - 2003 revision"/>
          </coding>
        </type>
        <subject>
          <reference value="Patient/patient-child-babyg-quinn"/>
        </subject>
        <encounter>
          <extension url="http://hl7.org/fhir/us/bfdr/StructureDefinition/Extension-encounter-maternity-reference">
            <valueReference>
              <reference value="Encounter/encounter-maternity-jada-ann-quinn"/>
            </valueReference>
          </extension>
          <reference value="Encounter/encounter-birth-babyg-quinn"/>
        </encounter>
        <date value="2019-02-12"/>
        <author>
          <reference value="Practitioner/practitioner-vital-records-avery-jones"/>
        </author>
        <title value="Provider supplied live birth report Document"/>
        <section>
          <code>
            <coding>
              <system value="http://loinc.org"/>
              <code value="57073-9"/>
            </coding>
          </code>
          <focus>
            <reference value="Patient/patient-mother-jada-ann-quinn"/>
          </focus>
          <entry>
            <reference value="Observation/observation-date-of-first-prenatal-care-visit-jada-ann-quinn"/>
          </entry>
          <entry>
            <reference value="Observation/observation-number-prenatal-visits-jada-ann-quinn"/>
          </entry>
          <entry>
            <reference value="Observation/observation-last-menstrual-period-jada-ann-quinn"/>
          </entry>
          <entry>
            <reference value="Observation/observation-number-births-now-living-jada-ann-quinn"/>
          </entry>
          <entry>
            <reference value="Observation/observation-number-births-now-dead-jada-ann-quinn"/>
          </entry>
          <entry>
            <reference value="Observation/observation-date-of-last-live-birth-jada-ann-quinn"/>
          </entry>
          <entry>
            <reference value="Observation/observation-number-other-pregnancy-outcomes-jada-ann-quinn"/>
          </entry>
          <entry>
            <reference value="Observation/observation-date-of-last-other-pregnancy-outcome-jada-ann-quinn"/>
          </entry>
          <entry>
            <reference value="Coverage/coverage-principal-payer-for-delivery-jada-ann-quinn"/>
          </entry>
          <entry>
            <reference value="Observation/observation-mother-delivery-weight-jada-ann-quinn"/>
          </entry>
          <entry>
            <reference value="Observation/observation-mother-height-jada-ann-quinn"/>
          </entry>
          <entry>
            <reference value="Observation/observation-mother-prepregnancy-weight-jada-ann-quinn"/>
          </entry>
          <entry>
            <reference value="Observation/observation-mother-received-wic-food-jada-ann-quinn"/>
          </entry>
          <entry>
            <reference value="Observation/observation-cig-smoking-pregnancy-1-jada-ann-quinn"/>
          </entry>
          <entry>
            <reference value="Observation/observation-cig-smoking-pregnancy-2-jada-ann-quinn"/>
          </entry>
          <entry>
            <reference value="Observation/observation-cig-smoking-pregnancy-3-jada-ann-quinn"/>
          </entry>
          <entry>
            <reference value="Observation/observation-cig-smoking-pregnancy-4-jada-ann-quinn"/>
          </entry>
        </section>
        <section>
          <code>
            <coding>
              <system value="http://loinc.org"/>
              <code value="55752-0"/>
            </coding>
          </code>
          <focus>
            <reference value="Patient/patient-mother-jada-ann-quinn"/>
          </focus>
          <entry>
            <reference value="Procedure/procedure-obstetric-procedure-jada-ann-quinn"/>
          </entry>
          <entry>
            <reference value="Observation/observation-number-previous-cesareans-jada-ann-quinn"/>
          </entry>
          <entry>
            <reference value="Condition/condition-infection-present-during-pregnancy-jada-ann-quinn"/>
          </entry>
          <entry>
            <reference value="Condition/condition-gestational-hypertension-jada-ann-quinn"/>
          </entry>
          <entry>
            <reference value="Condition/condition-prepregnancy-diabetes-jada-ann-quinn"/>
          </entry>
          <entry>
            <reference value="Procedure/procedure-infertility-treatment-jada-ann-quinn"/>
          </entry>
          <entry>
            <reference value="Procedure/procedure-artificial-insemination-jada-ann-quinn"/>
          </entry>
          <entry>
            <reference value="Condition/condition-chorioamnionitis-jada-ann-quinn"/>
          </entry>
          <entry>
            <reference value="Procedure/procedure-induction-of-labor-jada-ann-quinn"/>
          </entry>
          <entry>
            <reference value="Observation/observation-antibiotics-during-labor-jada-ann-quinn"/>
          </entry>
          <entry>
            <reference value="Procedure/procedure-epidural-or-spinal-anesthesia-jada-ann-quinn"/>
          </entry>
          <entry>
            <reference value="Observation/observation-fetal-presentation-babyg-quinn"/>
          </entry>
          <entry>
            <reference value="Procedure/procedure-final-route-method-delivery-babyg-quinn"/>
          </entry>
          <entry>
            <reference value="Condition/condition-ruptured-uterus-jada-ann-quinn"/>
          </entry>
        </section>
        <section>
          <code>
            <coding>
              <system value="http://loinc.org"/>
              <code value="57075-4"/>
            </coding>
          </code>
          <entry>
            <reference value="Observation/observation-birth-weight-babyg-quinn"/>
          </entry>
          <entry>
            <reference value="Observation/observation-gestational-age-at-delivery-babyg-quinn"/>
          </entry>
          <entry>
            <reference value="Observation/observation-apgar-score-babyg-quinn-1-min"/>
          </entry>
          <entry>
            <reference value="Observation/observation-apgar-score-babyg-quinn-5-min"/>
          </entry>
          <entry>
            <reference value="Observation/observation-number-live-births-this-delivery-jada-ann-quinn"/>
          </entry>
          <entry>
            <reference value="Condition/condition-congenital-anomaly-of-newborn-babyg-quinn"/>
          </entry>
          <entry>
            <reference value="Condition/condition-congenital-anomaly-of-newborn-babyg-quinn-2"/>
          </entry>
          <entry>
            <reference value="Observation/observation-infant-living-babyg-quinn"/>
          </entry>
          <entry>
            <reference value="Observation/observation-infant-breastfed-at-discharge-babyg-quinn"/>
          </entry>
        </section>
        <section>
          <code>
            <coding>
              <system value="http://loinc.org"/>
              <code value="92014-0"/>
            </coding>
          </code>
          <focus>
            <reference value="Patient/patient-mother-jada-ann-quinn"/>
          </focus>
          <entry>
            <reference value="Observation/observation-mother-married-during-pregnancy-jada-ann-quinn"/>
          </entry>
          <entry>
            <reference value="Observation/observation-parent-education-level-jada-ann-quinn"/>
          </entry>
          <entry>
            <reference value="Observation/observation-usual-work-jada-ann-quinn"/>
          </entry>
          <entry>
            <reference value="Observation/observation-input-race-and-ethnicity-jada-ann-quinn"/>
          </entry>
          <entry>
            <reference value="Observation/observation-ssn-requested-for-child-babyg-quinn"/>
          </entry>
        </section>
        <section>
          <code>
            <coding>
              <system value="http://loinc.org"/>
              <code value="92013-2"/>
            </coding>
          </code>
          <focus>
            <reference value="RelatedPerson/relatedperson-father-natural-james-brandon-quinn"/>
          </focus>
          <entry>
            <reference value="Observation/observation-paternity-acknowledgement-signed-james-quinn"/>
          </entry>
          <entry>
            <reference value="Observation/observation-parent-education-level-james-quinn"/>
          </entry>
          <entry>
            <reference value="Observation/observation-usual-work-james-brandon-quinn"/>
          </entry>
          <entry>
            <reference value="Observation/observation-input-race-and-ethnicity-james-quinn"/>
          </entry>
        </section>
        <section>
          <code>
            <coding>
              <system value="http://loinc.org"/>
              <code value="74465-6"/>
            </coding>
          </code>
          <focus>
            <reference value="Patient/patient-mother-jada-ann-quinn"/>
          </focus>
          <entry>
            <reference value="QuestionnaireResponse/QuestionnaireResponse-mothers-live-birth-jada-quinn"/>
          </entry>
        </section>
      </Composition>
    </resource>
  </entry>
  <entry>
    <fullUrl value="http://www.example.org/fhir/Patient/patient-child-babyg-quinn"/>
    <resource>
      <Patient>
        <id value="patient-child-babyg-quinn"/>
        <meta>
          <profile value="http://hl7.org/fhir/us/vr-common-library/StructureDefinition/Patient-child-vr"/>
        </meta>
        <text>
          <status value="extensions"/><div xmlns="http://www.w3.org/1999/xhtml"><p><b>Generated Narrative: Patient</b><a name="patient-child-babyg-quinn"> </a></p><div style="display: inline-block; background-color: #d9e0e7; padding: 6px; margin: 4px; border: 1px solid #8da1b4; border-radius: 5px; line-height: 60%"><p style="margin-bottom: 0px">Resource Patient &quot;patient-child-babyg-quinn&quot; </p><p style="margin-bottom: 0px">Profile: <a href="https://build.fhir.org/ig/HL7/vr-common-library//StructureDefinition-Patient-child-vr.html">Patient - Child Vital Records</a></p></div><blockquote><p><b>US Core Race Extension</b></p><blockquote><p><b>url</b></p><code>ombCategory</code></blockquote><p><b>value</b>: White (Details: urn:oid:2.16.840.1.113883.6.238 code 2106-3 = 'White', stated as 'White')</p><blockquote><p><b>url</b></p><code>text</code></blockquote><p><b>value</b>: White</p></blockquote><blockquote><p><b>US Core Ethnicity Extension</b></p><blockquote><p><b>url</b></p><code>ombCategory</code></blockquote><p><b>value</b>: Not Hispanic or Latino (Details: urn:oid:2.16.840.1.113883.6.238 code 2186-5 = 'Not Hispanic or Latino', stated as 'Not Hispanic or Latino')</p><blockquote><p><b>url</b></p><code>text</code></blockquote><p><b>value</b>: Not Hispanic or Latino</p></blockquote><p><b>US Core Birth Sex Extension</b>: F</p><p><b>Birth Place</b>: Salt Lake City UT </p><blockquote><p><b>Reported Parent Age At Delivery Vital Records</b></p><blockquote><p><b>url</b></p><code>reportedAge</code></blockquote><p><b>value</b>: 34 a<span style="background: LightGoldenRodYellow"> (Details: UCUM code a = 'a')</span></p><blockquote><p><b>url</b></p><code>motherOrFather</code></blockquote><p><b>value</b>: mother <span style="background: LightGoldenRodYellow; margin: 4px; border: 1px solid khaki"> (<a href="http://terminology.hl7.org/5.0.0/CodeSystem-v3-RoleCode.html">RoleCode</a>#MTH)</span></p></blockquote><blockquote><p><b>Reported Parent Age At Delivery Vital Records</b></p><blockquote><p><b>url</b></p><code>reportedAge</code></blockquote><p><b>value</b>: 35 a<span style="background: LightGoldenRodYellow"> (Details: UCUM code a = 'a')</span></p><blockquote><p><b>url</b></p><code>motherOrFather</code></blockquote><p><b>value</b>: father <span style="background: LightGoldenRodYellow; margin: 4px; border: 1px solid khaki"> (<a href="http://terminology.hl7.org/5.0.0/CodeSystem-v3-RoleCode.html">RoleCode</a>#FTH)</span></p></blockquote><p><b>identifier</b>: Medical Record Number: 9932702 (use: USUAL)</p><p><b>name</b>: Baby G Quinn (OFFICIAL)</p><p><b>gender</b>: female</p><p><b>birthDate</b>: 2019-02-12</p><p><b>deceased</b>: false</p><p><b>multipleBirth</b>: 1</p></div>
        </text>
        <extension url="http://hl7.org/fhir/us/core/StructureDefinition/us-core-race">
          <extension url="ombCategory">
            <valueCoding>
              <system value="urn:oid:2.16.840.1.113883.6.238"/>
              <code value="2106-3"/>
              <display value="White"/>
            </valueCoding>
          </extension>
          <extension url="text">
            <valueString value="White"/>
          </extension>
        </extension>
        <extension url="http://hl7.org/fhir/us/core/StructureDefinition/us-core-ethnicity">
          <extension url="ombCategory">
            <valueCoding>
              <system value="urn:oid:2.16.840.1.113883.6.238"/>
              <code value="2186-5"/>
              <display value="Not Hispanic or Latino"/>
            </valueCoding>
          </extension>
          <extension url="text">
            <valueString value="Not Hispanic or Latino"/>
          </extension>
        </extension>
        <extension url="http://hl7.org/fhir/us/core/StructureDefinition/us-core-birthsex">
          <valueCode value="F"/>
        </extension>
        <extension url="http://hl7.org/fhir/StructureDefinition/patient-birthPlace">
          <valueAddress>
            <city value="Salt Lake City"/>
            <district value="Salt Lake"/>
            <state value="UT"/>
          </valueAddress>
        </extension>
        <extension url="http://hl7.org/fhir/us/vr-common-library/StructureDefinition/Extension-reported-parent-age-at-delivery-vr">
          <extension url="reportedAge">
            <valueQuantity>
              <value value="34"/>
              <system value="http://unitsofmeasure.org"/>
              <code value="a"/>
            </valueQuantity>
          </extension>
          <extension url="motherOrFather">
            <valueCodeableConcept>
              <coding>
                <system value="http://terminology.hl7.org/CodeSystem/v3-RoleCode"/>
                <code value="MTH"/>
                <display value="mother"/>
              </coding>
            </valueCodeableConcept>
          </extension>
        </extension>
        <extension url="http://hl7.org/fhir/us/vr-common-library/StructureDefinition/Extension-reported-parent-age-at-delivery-vr">
          <extension url="reportedAge">
            <valueQuantity>
              <value value="35"/>
              <system value="http://unitsofmeasure.org"/>
              <code value="a"/>
            </valueQuantity>
          </extension>
          <extension url="motherOrFather">
            <valueCodeableConcept>
              <coding>
                <system value="http://terminology.hl7.org/CodeSystem/v3-RoleCode"/>
                <code value="FTH"/>
                <display value="father"/>
              </coding>
            </valueCodeableConcept>
          </extension>
        </extension>
        <identifier>
          <use value="usual"/>
          <type>
            <coding>
              <system value="http://terminology.hl7.org/CodeSystem/v2-0203"/>
              <code value="MR"/>
              <display value="Medical Record Number"/>
            </coding>
          </type>
          <system value="http://hospital.smarthealthit.org"/>
          <value value="9932702"/>
        </identifier>
        <name>
          <use value="official"/>
          <family value="Quinn"/>
          <given value="Baby"/>
          <given value="G"/>
        </name>
        <gender value="female"/>
        <birthDate value="2019-02-12">
          <extension url="http://hl7.org/fhir/StructureDefinition/patient-birthTime">
            <valueDateTime value="2019-02-12T13:00:00-07:00"/>
          </extension>
        </birthDate>
        <deceasedBoolean value="false"/>
        <multipleBirthInteger value="1"/>
      </Patient>
    </resource>
  </entry>
  <entry>
    <fullUrl value="http://www.example.org/fhir/Encounter/encounter-birth-babyg-quinn"/>
    <resource>
      <Encounter>
        <id value="encounter-birth-babyg-quinn"/>
        <meta>
          <profile value="http://hl7.org/fhir/us/bfdr/StructureDefinition/Encounter-birth"/>
        </meta>
        <text>
          <status value="extensions"/><div xmlns="http://www.w3.org/1999/xhtml"><p><b>Generated Narrative: Encounter</b><a name="encounter-birth-babyg-quinn"> </a></p><div style="display: inline-block; background-color: #d9e0e7; padding: 6px; margin: 4px; border: 1px solid #8da1b4; border-radius: 5px; line-height: 60%"><p style="margin-bottom: 0px">Resource Encounter &quot;encounter-birth-babyg-quinn&quot; </p><p style="margin-bottom: 0px">Profile: <a href="StructureDefinition-Encounter-birth.html">Encounter - Birth</a></p></div><p><b>Role Vital Records</b>: child <span style="background: LightGoldenRodYellow; margin: 4px; border: 1px solid khaki"> (<a href="http://terminology.hl7.org/5.0.0/CodeSystem-v3-RoleCode.html">RoleCode</a>#CHILD)</span></p><p><b>identifier</b>: id: 9937012</p><p><b>status</b>: finished</p><p><b>class</b>: inpatient encounter (Details: http://terminology.hl7.org/CodeSystem/v3-ActCode code IMP = 'inpatient encounter', stated as 'inpatient encounter')</p><p><b>type</b>: Under Observation or Inpatient Care Services (Including Admission and Discharge Services) <span style="background: LightGoldenRodYellow; margin: 4px; border: 1px solid khaki"> (<a href="http://terminology.hl7.org/5.0.0/CodeSystem-CPT.html">Current Procedural Terminology (CPT®)</a>#99234)</span></p><p><b>subject</b>: <a href="#Patient_patient-child-babyg-quinn">See above (Patient/patient-child-babyg-quinn: BabyG Quinn)</a></p><blockquote><p><b>participant</b></p><p><b>type</b>: Birth certifier [Extended Identifier] <span style="background: LightGoldenRodYellow; margin: 4px; border: 1px solid khaki"> (<a href="https://loinc.org/">LOINC</a>#87287-9)</span></p><p><b>period</b>: 2019-02-12 13:30:00-0700 --&gt; (ongoing)</p><p><b>individual</b>: <a href="#Practitioner_practitioner-vital-records-avery-jones">See above (Practitioner/practitioner-vital-records-avery-jones: Practitioner - Vital Records (Avery Jones, MD))</a></p></blockquote><blockquote><p><b>participant</b></p><p><b>type</b>: Birth attendant [Extended Identifier] <span style="background: LightGoldenRodYellow; margin: 4px; border: 1px solid khaki"> (<a href="https://loinc.org/">LOINC</a>#87286-1)</span></p><p><b>individual</b>: <a href="#Practitioner_practitioner-vital-records-avery-jones">See above (Practitioner/practitioner-vital-records-avery-jones: Practitioner - Vital Records (Avery Jones, MD))</a></p></blockquote><p><b>period</b>: 2019-02-12 13:00:00-0700 --&gt; 2019-02-15 10:00:00-0700</p><h3>Hospitalizations</h3><table class="grid"><tr><td style="display: none">-</td><td><b>Destination</b></td><td><b>DischargeDisposition</b></td></tr><tr><td style="display: none">*</td><td><a href="#Location_location-east-hospital">See above (Location/location-east-hospital: East Hospital Location)</a></td><td>The patient was transferred to another healthcare facility. <span style="background: LightGoldenRodYellow; margin: 4px; border: 1px solid khaki"> (<a href="http://terminology.hl7.org/5.0.0/CodeSystem-discharge-disposition.html">Discharge disposition</a>#other-hcf &quot;Other healthcare facility&quot;)</span></td></tr></table><h3>Locations</h3><table class="grid"><tr><td style="display: none">-</td><td><b>Location</b></td><td><b>PhysicalType</b></td></tr><tr><td style="display: none">*</td><td><a href="#Location_location-south-hospital">See above (Location/location-south-hospital: Location - US Core Location (South Hospital))</a></td><td>Hospital <span style="background: LightGoldenRodYellow; margin: 4px; border: 1px solid khaki"> (<a href="https://browser.ihtsdotools.org/">SNOMED CT</a>#22232009)</span></td></tr></table><p><b>partOf</b>: <a href="#Encounter_encounter-maternity-jada-ann-quinn">See above (Encounter/encounter-maternity-jada-ann-quinn: Maternity Encounter - Jada Ann Quinn)</a></p></div>
        </text>
        <extension url="http://hl7.org/fhir/us/vr-common-library/StructureDefinition/Extension-role-vr">
          <valueCodeableConcept>
            <coding>
              <system value="http://terminology.hl7.org/CodeSystem/v3-RoleCode"/>
              <code value="CHILD"/>
            </coding>
          </valueCodeableConcept>
        </extension>
        <identifier>
          <system value="http://hospital.smarthealthit.org"/>
          <value value="9937012"/>
        </identifier>
        <status value="finished"/>
        <class>
          <system value="http://terminology.hl7.org/CodeSystem/v3-ActCode"/>
          <code value="IMP"/>
          <display value="inpatient encounter"/>
        </class>
        <type>
          <coding>
            <system value="http://www.ama-assn.org/go/cpt"/>
            <code value="99234"/>
          </coding>
          <text value="Under Observation or Inpatient Care Services (Including Admission and Discharge Services)"/>
        </type>
        <subject>
          <reference value="Patient/patient-child-babyg-quinn"/>
          <display value="BabyG Quinn"/>
        </subject>
        <participant>
          <type>
            <coding>
              <system value="http://loinc.org"/>
              <code value="87287-9"/>
              <display value="Birth certifier [Extended Identifier]"/>
            </coding>
          </type>
          <period>
            <start value="2019-02-12T13:30:00-07:00"/>
          </period>
          <individual>
            <reference value="Practitioner/practitioner-vital-records-avery-jones"/>
            <display value="Practitioner - Vital Records (Avery Jones, MD)"/>
          </individual>
        </participant>
        <participant>
          <type>
            <coding>
              <system value="http://loinc.org"/>
              <code value="87286-1"/>
              <display value="Birth attendant [Extended Identifier]"/>
            </coding>
          </type>
          <individual>
            <reference value="Practitioner/practitioner-vital-records-avery-jones"/>
            <display value="Practitioner - Vital Records (Avery Jones, MD)"/>
          </individual>
        </participant>
        <period>
          <start value="2019-02-12T13:00:00-07:00"/>
          <end value="2019-02-15T10:00:00-07:00"/>
        </period>
        <hospitalization>
          <destination>
            <reference value="Location/location-east-hospital"/>
            <display value="East Hospital Location"/>
          </destination>
          <dischargeDisposition>
            <coding>
              <system value="http://terminology.hl7.org/CodeSystem/discharge-disposition"/>
              <code value="other-hcf"/>
              <display value="Other healthcare facility"/>
            </coding>
            <text value="The patient was transferred to another healthcare facility."/>
          </dischargeDisposition>
        </hospitalization>
        <location>
          <location>
            <reference value="Location/location-south-hospital"/>
            <display value="Location - US Core Location (South Hospital)"/>
          </location>
          <physicalType>
            <coding>
              <system value="http://snomed.info/sct"/>
              <code value="22232009"/>
              <display value="Hospital"/>
            </coding>
          </physicalType>
        </location>
        <partOf>
          <reference value="Encounter/encounter-maternity-jada-ann-quinn"/>
          <display value="Maternity Encounter - Jada Ann Quinn"/>
        </partOf>
      </Encounter>
    </resource>
  </entry>
  <entry>
    <fullUrl value="http://www.example.org/fhir/Encounter/encounter-maternity-jada-ann-quinn"/>
    <resource>
      <Encounter>
        <id value="encounter-maternity-jada-ann-quinn"/>
        <meta>
          <profile value="http://hl7.org/fhir/us/bfdr/StructureDefinition/Encounter-maternity"/>
        </meta>
        <text>
          <status value="extensions"/><div xmlns="http://www.w3.org/1999/xhtml"><p><b>Generated Narrative: Encounter</b><a name="encounter-maternity-jada-ann-quinn"> </a></p><div style="display: inline-block; background-color: #d9e0e7; padding: 6px; margin: 4px; border: 1px solid #8da1b4; border-radius: 5px; line-height: 60%"><p style="margin-bottom: 0px">Resource Encounter &quot;encounter-maternity-jada-ann-quinn&quot; </p><p style="margin-bottom: 0px">Profile: <a href="StructureDefinition-Encounter-maternity.html">Encounter - Maternity</a></p></div><p><b>Role Vital Records</b>: mother <span style="background: LightGoldenRodYellow; margin: 4px; border: 1px solid khaki"> (<a href="http://terminology.hl7.org/5.0.0/CodeSystem-v3-RoleCode.html">RoleCode</a>#MTH)</span></p><p><b>identifier</b>: id: 9937012</p><p><b>status</b>: finished</p><p><b>class</b>: inpatient encounter (Details: http://terminology.hl7.org/CodeSystem/v3-ActCode code IMP = 'inpatient encounter', stated as 'inpatient encounter')</p><p><b>type</b>: Under Observation or Inpatient Care Services (Including Admission and Discharge Services) <span style="background: LightGoldenRodYellow; margin: 4px; border: 1px solid khaki"> (<a href="http://terminology.hl7.org/5.0.0/CodeSystem-CPT.html">Current Procedural Terminology (CPT®)</a>#99234)</span></p><p><b>subject</b>: <a href="#Patient_patient-mother-jada-ann-quinn">See above (Patient/patient-mother-jada-ann-quinn: Patient - Mother (Jada Ann Quinn))</a></p><h3>Participants</h3><table class="grid"><tr><td style="display: none">-</td><td><b>Type</b></td><td><b>Individual</b></td></tr><tr><td style="display: none">*</td><td>Birth attendant [Extended Identifier] <span style="background: LightGoldenRodYellow; margin: 4px; border: 1px solid khaki"> (<a href="https://loinc.org/">LOINC</a>#87286-1)</span></td><td><a href="#Practitioner_practitioner-vital-records-avery-jones">See above (Practitioner/practitioner-vital-records-avery-jones: Practitioner - Vital Records (Avery Jones, MD))</a></td></tr></table><p><b>period</b>: 2019-02-11 10:00:00-0700 --&gt; 2019-02-15 10:00:00-0700</p><h3>Hospitalizations</h3><table class="grid"><tr><td style="display: none">-</td><td><b>Origin</b></td><td><b>AdmitSource</b></td></tr><tr><td style="display: none">*</td><td><a href="#Location_location-north-hospital">See above (Location/location-north-hospital: Location - US Core Location (North Hospital))</a></td><td>The Patient has been transferred from another hospital for this encounter. <span style="background: LightGoldenRodYellow; margin: 4px; border: 1px solid khaki"> (<a href="http://terminology.hl7.org/5.0.0/CodeSystem-admit-source.html">Admit source</a>#hosp-trans &quot;Transferred from other hospital&quot;)</span></td></tr></table><h3>Locations</h3><table class="grid"><tr><td style="display: none">-</td><td><b>Location</b></td><td><b>PhysicalType</b></td></tr><tr><td style="display: none">*</td><td><a href="#Location_location-south-hospital">See above (Location/location-south-hospital: Location - US Core Location (South Hospital))</a></td><td>Hospital <span style="background: LightGoldenRodYellow; margin: 4px; border: 1px solid khaki"> (<a href="https://browser.ihtsdotools.org/">SNOMED CT</a>#22232009)</span></td></tr></table><p><b>serviceProvider</b>: <a href="#Organization_organization-south-hospital">See above (Organization/organization-south-hospital: Organization - US Core Organization (South Hospital Organization))</a></p></div>
        </text>
        <extension url="http://hl7.org/fhir/us/vr-common-library/StructureDefinition/Extension-role-vr">
          <valueCodeableConcept>
            <coding>
              <system value="http://terminology.hl7.org/CodeSystem/v3-RoleCode"/>
              <code value="MTH"/>
            </coding>
          </valueCodeableConcept>
        </extension>
        <identifier>
          <system value="http://hospital.smarthealthit.org"/>
          <value value="9937012"/>
        </identifier>
        <status value="finished"/>
        <class>
          <system value="http://terminology.hl7.org/CodeSystem/v3-ActCode"/>
          <code value="IMP"/>
          <display value="inpatient encounter"/>
        </class>
        <type>
          <coding>
            <system value="http://www.ama-assn.org/go/cpt"/>
            <code value="99234"/>
          </coding>
          <text value="Under Observation or Inpatient Care Services (Including Admission and Discharge Services)"/>
        </type>
        <subject>
          <reference value="Patient/patient-mother-jada-ann-quinn"/>
          <display value="Patient - Mother (Jada Ann Quinn)"/>
        </subject>
        <participant>
          <type>
            <coding>
              <system value="http://loinc.org"/>
              <code value="87286-1"/>
              <display value="Birth attendant [Extended Identifier]"/>
            </coding>
          </type>
          <individual>
            <reference value="Practitioner/practitioner-vital-records-avery-jones"/>
            <display value="Practitioner - Vital Records (Avery Jones, MD)"/>
          </individual>
        </participant>
        <period>
          <start value="2019-02-11T10:00:00-07:00"/>
          <end value="2019-02-15T10:00:00-07:00"/>
        </period>
        <hospitalization>
          <origin>
            <reference value="Location/location-north-hospital"/>
            <display value="Location - US Core Location (North Hospital)"/>
          </origin>
          <admitSource>
            <coding>
              <system value="http://terminology.hl7.org/CodeSystem/admit-source"/>
              <code value="hosp-trans"/>
              <display value="Transferred from other hospital"/>
            </coding>
            <text value="The Patient has been transferred from another hospital for this encounter."/>
          </admitSource>
        </hospitalization>
        <location>
          <location>
            <reference value="Location/location-south-hospital"/>
            <display value="Location - US Core Location (South Hospital)"/>
          </location>
          <physicalType>
            <coding>
              <system value="http://snomed.info/sct"/>
              <code value="22232009"/>
              <display value="Hospital"/>
            </coding>
          </physicalType>
        </location>
        <serviceProvider>
          <reference value="Organization/organization-south-hospital"/>
          <display value="Organization - US Core Organization (South Hospital Organization)"/>
        </serviceProvider>
      </Encounter>
    </resource>
  </entry>
  <entry>
    <fullUrl value="http://www.example.org/fhir/Practitioner/practitioner-vital-records-avery-jones"/>
    <resource>
      <Practitioner>
        <id value="practitioner-vital-records-avery-jones"/>
        <meta>
          <profile value="http://hl7.org/fhir/us/vr-common-library/StructureDefinition/Practitioner-vr"/>
        </meta>
        <text>
          <status value="extensions"/><div xmlns="http://www.w3.org/1999/xhtml"><p><b>Generated Narrative: Practitioner</b><a name="practitioner-vital-records-avery-jones"> </a></p><div style="display: inline-block; background-color: #d9e0e7; padding: 6px; margin: 4px; border: 1px solid #8da1b4; border-radius: 5px; line-height: 60%"><p style="margin-bottom: 0px">Resource Practitioner &quot;practitioner-vital-records-avery-jones&quot; </p><p style="margin-bottom: 0px">Profile: <a href="https://build.fhir.org/ig/HL7/vr-common-library//StructureDefinition-Practitioner-vr.html">Practitioner - Vital Records</a></p></div><p><b>Practitioner Role - Birth Attendant</b>: attendant</p><p><b>Practitioner Role - Certifier</b>: certifier</p><p><b>identifier</b>: id: <a href="http://terminology.hl7.org/5.0.0/NamingSystem-npi.html">#</a>76231001</p><p><b>name</b>: Avery Jones</p><h3>Qualifications</h3><table class="grid"><tr><td style="display: none">-</td><td><b>Code</b></td></tr><tr><td style="display: none">*</td><td>Osteopath (occupation) <span style="background: LightGoldenRodYellow; margin: 4px; border: 1px solid khaki"> (<a href="https://browser.ihtsdotools.org/">SNOMED CT</a>#76231001)</span></td></tr></table></div>
        </text>
        <extension url="http://hl7.org/fhir/us/bfdr/StructureDefinition/practitioner-role-birth-attendant">
          <valueCode value="attendant"/>
        </extension>
        <extension url="http://hl7.org/fhir/us/bfdr/StructureDefinition/practitioner-role-birth-certifier">
          <valueCode value="certifier"/>
        </extension>
        <identifier>
          <system value="http://hl7.org/fhir/sid/us-npi"/>
          <value value="76231001"/>
        </identifier>
        <name>
          <text value="Avery Jones"/>
          <family value="Jones"/>
          <given value="Avery"/>
          <suffix value="D.O."/>
        </name>
        <qualification>
          <code>
            <coding>
              <system value="http://snomed.info/sct"/>
              <code value="76231001"/>
              <display value="Osteopath (occupation)"/>
            </coding>
          </code>
        </qualification>
      </Practitioner>
    </resource>
  </entry>
  <entry>
    <fullUrl value="http://www.example.org/fhir/Practitioner/practitioner-vital-records-janet-seito"/>
    <resource>
      <Practitioner>
        <id value="practitioner-vital-records-janet-seito"/>
        <meta>
          <profile value="http://hl7.org/fhir/us/vr-common-library/StructureDefinition/Practitioner-vr"/>
        </meta>
        <text>
          <status value="extensions"/><div xmlns="http://www.w3.org/1999/xhtml"><p><b>Generated Narrative: Practitioner</b><a name="practitioner-vital-records-janet-seito"> </a></p><div style="display: inline-block; background-color: #d9e0e7; padding: 6px; margin: 4px; border: 1px solid #8da1b4; border-radius: 5px; line-height: 60%"><p style="margin-bottom: 0px">Resource Practitioner &quot;practitioner-vital-records-janet-seito&quot; </p><p style="margin-bottom: 0px">Profile: <a href="https://build.fhir.org/ig/HL7/vr-common-library//StructureDefinition-Practitioner-vr.html">Practitioner - Vital Records</a></p></div><p><b>Practitioner Role - Birth Attendant</b>: attendant</p><p><b>Practitioner Role - Certifier</b>: certifier</p><p><b>identifier</b>: id: <a href="http://terminology.hl7.org/5.0.0/NamingSystem-npi.html">#</a>223347044</p><p><b>name</b>: Janet Seito</p><h3>Qualifications</h3><table class="grid"><tr><td style="display: none">-</td><td><b>Code</b></td></tr><tr><td style="display: none">*</td><td>Osteopath (occupation) <span style="background: LightGoldenRodYellow; margin: 4px; border: 1px solid khaki"> (<a href="https://browser.ihtsdotools.org/">SNOMED CT</a>#76231001)</span></td></tr></table></div>
        </text>
        <extension url="http://hl7.org/fhir/us/bfdr/StructureDefinition/practitioner-role-birth-attendant">
          <valueCode value="attendant"/>
        </extension>
        <extension url="http://hl7.org/fhir/us/bfdr/StructureDefinition/practitioner-role-birth-certifier">
          <valueCode value="certifier"/>
        </extension>
        <identifier>
          <system value="http://hl7.org/fhir/sid/us-npi"/>
          <value value="223347044"/>
        </identifier>
        <name>
          <text value="Janet Seito"/>
          <family value="Janet"/>
          <given value="Seito"/>
          <suffix value="D.O."/>
        </name>
        <qualification>
          <code>
            <coding>
              <system value="http://snomed.info/sct"/>
              <code value="76231001"/>
              <display value="Osteopath (occupation)"/>
            </coding>
          </code>
        </qualification>
      </Practitioner>
    </resource>
  </entry>
  <entry>
    <fullUrl value="http://www.example.org/fhir/Patient/patient-mother-jada-ann-quinn"/>
    <resource>
      <Patient>
        <id value="patient-mother-jada-ann-quinn"/>
        <meta>
          <profile value="http://hl7.org/fhir/us/vr-common-library/StructureDefinition/Patient-mother-vr"/>
        </meta>
        <text>
          <status value="extensions"/><div xmlns="http://www.w3.org/1999/xhtml"><p><b>Generated Narrative: Patient</b><a name="patient-mother-jada-ann-quinn"> </a></p><div style="display: inline-block; background-color: #d9e0e7; padding: 6px; margin: 4px; border: 1px solid #8da1b4; border-radius: 5px; line-height: 60%"><p style="margin-bottom: 0px">Resource Patient &quot;patient-mother-jada-ann-quinn&quot; </p><p style="margin-bottom: 0px">Profile: <a href="https://build.fhir.org/ig/HL7/vr-common-library//StructureDefinition-Patient-mother-vr.html">Patient - Mother Vital Records</a></p></div><blockquote><p><b>US Core Race Extension</b></p><blockquote><p><b>url</b></p><code>ombCategory</code></blockquote><p><b>value</b>: American Indian or Alaska Native (Details: urn:oid:2.16.840.1.113883.6.238 code 1002-5 = 'American Indian or Alaska Native', stated as 'American Indian or Alaska Native')</p><blockquote><p><b>url</b></p><code>text</code></blockquote><p><b>value</b>: White, American Indian or Alaska Native</p></blockquote><blockquote><p><b>US Core Ethnicity Extension</b></p><blockquote><p><b>url</b></p><code>ombCategory</code></blockquote><p><b>value</b>: Not Hispanic or Latino (Details: urn:oid:2.16.840.1.113883.6.238 code 2186-5 = 'Not Hispanic or Latino', stated as 'Not Hispanic or Latino')</p><blockquote><p><b>url</b></p><code>text</code></blockquote><p><b>value</b>: Not Hispanic or Latino</p></blockquote><p><b>US Core Birth Sex Extension</b>: F</p><p><b>Birth Place</b>: UT </p><p><b>identifier</b>: Social Security number: <a href="http://terminology.hl7.org/5.0.0/NamingSystem-ssn.html">#</a>132225986 (use: USUAL), Medical Record Number: 1032702 (use: USUAL)</p><p><b>name</b>: Jada Ann Quinn (OFFICIAL), Jada Ann King (MAIDEN)</p><p><b>telecom</b>: ph: 1-(404)555-1212(HOME), <a href="mailto:jadaann.quinn@example.com">jadaann.quinn@example.com</a></p><p><b>gender</b>: female</p><p><b>birthDate</b>: 1985-01-15</p><p><b>address</b>: </p><ul><li>1875 West Morton Avenue Salt Lake City UT 84116 US (HOME)</li><li>1848 South 1300 East Salt Lake City UT 84401 US (BILLING)</li></ul></div>
        </text>
        <extension url="http://hl7.org/fhir/us/core/StructureDefinition/us-core-race">
          <extension url="ombCategory">
            <valueCoding>
              <system value="urn:oid:2.16.840.1.113883.6.238"/>
              <code value="1002-5"/>
              <display value="American Indian or Alaska Native"/>
            </valueCoding>
          </extension>
          <extension url="text">
            <valueString value="White, American Indian or Alaska Native"/>
          </extension>
        </extension>
        <extension url="http://hl7.org/fhir/us/core/StructureDefinition/us-core-ethnicity">
          <extension url="ombCategory">
            <valueCoding>
              <system value="urn:oid:2.16.840.1.113883.6.238"/>
              <code value="2186-5"/>
              <display value="Not Hispanic or Latino"/>
            </valueCoding>
          </extension>
          <extension url="text">
            <valueString value="Not Hispanic or Latino"/>
          </extension>
        </extension>
        <extension url="http://hl7.org/fhir/us/core/StructureDefinition/us-core-birthsex">
          <valueCode value="F"/>
        </extension>
        <extension url="http://hl7.org/fhir/StructureDefinition/patient-birthPlace">
          <valueAddress>
            <state value="UT"/>
          </valueAddress>
        </extension>
        <identifier>
          <use value="usual"/>
          <type>
            <coding>
              <system value="http://terminology.hl7.org/CodeSystem/v2-0203"/>
              <code value="SS"/>
              <display value="Social Security number"/>
            </coding>
          </type>
          <system value="http://hl7.org/fhir/sid/us-ssn"/>
          <value value="132225986"/>
        </identifier>
        <identifier>
          <use value="usual"/>
          <type>
            <coding>
              <system value="http://terminology.hl7.org/CodeSystem/v2-0203"/>
              <code value="MR"/>
              <display value="Medical Record Number"/>
            </coding>
          </type>
          <system value="http://hospital.smarthealthit.org"/>
          <value value="1032702"/>
        </identifier>
        <name>
          <use value="official"/>
          <family value="Quinn"/>
          <given value="Jada"/>
          <given value="Ann"/>
        </name>
        <name>
          <use value="maiden"/>
          <family value="King"/>
          <given value="Jada"/>
          <given value="Ann"/>
        </name>
        <telecom>
          <system value="phone"/>
          <value value="1-(404)555-1212"/>
          <use value="home"/>
        </telecom>
        <telecom>
          <system value="email"/>
          <value value="jadaann.quinn@example.com"/>
        </telecom>
        <gender value="female"/>
        <birthDate value="1985-01-15"/>
        <address>
          <extension url="http://hl7.org/fhir/us/vr-common-library/StructureDefinition/Extension-within-city-limits-indicator-vr">
            <valueCoding>
              <system value="http://terminology.hl7.org/CodeSystem/v2-0136"/>
              <code value="Y"/>
              <display value="Yes"/>
            </valueCoding>
          </extension>
          <use value="home"/>
          <line value="1875 West Morton Avenue"/>
          <city value="Salt Lake City"/>
          <district value="Salt Lake"/>
          <state value="UT"/>
          <postalCode value="84116"/>
          <country value="US"/>
        </address>
        <address>
          <use value="billing"/>
          <line value="1848 South 1300 East"/>
          <city value="Salt Lake City"/>
          <state value="UT"/>
          <postalCode value="84401"/>
          <country value="US"/>
        </address>
      </Patient>
    </resource>
  </entry>
  <entry>
    <fullUrl value="http://www.example.org/fhir/Observation/observation-date-of-first-prenatal-care-visit-jada-ann-quinn"/>
    <resource>
      <Observation>
        <id value="observation-date-of-first-prenatal-care-visit-jada-ann-quinn"/>
        <meta>
          <profile value="http://hl7.org/fhir/us/bfdr/StructureDefinition/Observation-date-of-first-prenatal-care-visit"/>
        </meta>
        <text>
          <status value="generated"/><div xmlns="http://www.w3.org/1999/xhtml"><p><b>Generated Narrative: Observation</b><a name="observation-date-of-first-prenatal-care-visit-jada-ann-quinn"> </a></p><div style="display: inline-block; background-color: #d9e0e7; padding: 6px; margin: 4px; border: 1px solid #8da1b4; border-radius: 5px; line-height: 60%"><p style="margin-bottom: 0px">Resource Observation &quot;observation-date-of-first-prenatal-care-visit-jada-ann-quinn&quot; </p><p style="margin-bottom: 0px">Profile: <a href="StructureDefinition-Observation-date-of-first-prenatal-care-visit.html">Observation - Date of First Prenatal Care Visit</a></p></div><p><b>status</b>: final</p><p><b>code</b>: Date first prenatal visit <span style="background: LightGoldenRodYellow; margin: 4px; border: 1px solid khaki"> (<a href="https://loinc.org/">LOINC</a>#69044-6)</span></p><p><b>subject</b>: <a href="#Patient_patient-mother-jada-ann-quinn">See above (Patient/patient-mother-jada-ann-quinn: Patient - Mother (Jada Ann Quinn))</a></p><p><b>focus</b>: <a href="#Patient_patient-child-babyg-quinn">See above (Patient/patient-child-babyg-quinn: BabyG Quinn)</a></p><p><b>effective</b>: 2019-12-02</p><p><b>performer</b>: <a href="#Practitioner_practitioner-vital-records-janet-seito">See above (Practitioner/practitioner-vital-records-janet-seito)</a></p><p><b>value</b>: 2018-07-20</p></div>
        </text>
        <status value="final"/>
        <code>
          <coding>
            <system value="http://loinc.org"/>
            <code value="69044-6"/>
          </coding>
        </code>
        <subject>
          <reference value="Patient/patient-mother-jada-ann-quinn"/>
          <display value="Patient - Mother (Jada Ann Quinn)"/>
        </subject>
        <focus>
          <reference value="Patient/patient-child-babyg-quinn"/>
          <display value="BabyG Quinn"/>
        </focus>
        <effectiveDateTime value="2019-12-02"/>
        <performer>
          <reference value="Practitioner/practitioner-vital-records-janet-seito"/>
        </performer>
        <valueDateTime value="2018-07-20"/>
      </Observation>
    </resource>
  </entry>
  <entry>
    <fullUrl value="http://www.example.org/fhir/Observation/observation-number-prenatal-visits-jada-ann-quinn"/>
    <resource>
      <Observation>
        <id value="observation-number-prenatal-visits-jada-ann-quinn"/>
        <meta>
          <profile value="http://hl7.org/fhir/us/bfdr/StructureDefinition/Observation-number-prenatal-visits"/>
        </meta>
        <text>
          <status value="generated"/><div xmlns="http://www.w3.org/1999/xhtml"><p><b>Generated Narrative: Observation</b><a name="observation-number-prenatal-visits-jada-ann-quinn"> </a></p><div style="display: inline-block; background-color: #d9e0e7; padding: 6px; margin: 4px; border: 1px solid #8da1b4; border-radius: 5px; line-height: 60%"><p style="margin-bottom: 0px">Resource Observation &quot;observation-number-prenatal-visits-jada-ann-quinn&quot; </p><p style="margin-bottom: 0px">Profile: <a href="StructureDefinition-Observation-number-prenatal-visits.html">Observation - Number of Prenatal Visits</a></p></div><p><b>status</b>: final</p><p><b>code</b>: Prenatal visits for this pregnancy # <span style="background: LightGoldenRodYellow; margin: 4px; border: 1px solid khaki"> (<a href="https://loinc.org/">LOINC</a>#68493-6)</span></p><p><b>subject</b>: <a href="#Patient_patient-mother-jada-ann-quinn">See above (Patient/patient-mother-jada-ann-quinn: Patient - Mother (Jada Ann Quinn))</a></p><p><b>focus</b>: <a href="#Patient_patient-child-babyg-quinn">See above (Patient/patient-child-babyg-quinn: BabyG Quinn)</a></p><p><b>effective</b>: 2019-12-02</p><p><b>performer</b>: <a href="#Practitioner_practitioner-vital-records-janet-seito">See above (Practitioner/practitioner-vital-records-janet-seito)</a></p><p><b>value</b>: 8</p></div>
        </text>
        <status value="final"/>
        <code>
          <coding>
            <system value="http://loinc.org"/>
            <code value="68493-6"/>
            <display value="Prenatal visits for this pregnancy #"/>
          </coding>
          <text value="Prenatal visits for this pregnancy #"/>
        </code>
        <subject>
          <reference value="Patient/patient-mother-jada-ann-quinn"/>
          <display value="Patient - Mother (Jada Ann Quinn)"/>
        </subject>
        <focus>
          <reference value="Patient/patient-child-babyg-quinn"/>
          <display value="BabyG Quinn"/>
        </focus>
        <effectiveDateTime value="2019-12-02"/>
        <performer>
          <reference value="Practitioner/practitioner-vital-records-janet-seito"/>
        </performer>
        <valueInteger value="8"/>
      </Observation>
    </resource>
  </entry>
  <entry>
    <fullUrl value="http://www.example.org/fhir/Observation/observation-last-menstrual-period-jada-ann-quinn"/>
    <resource>
      <Observation>
        <id value="observation-last-menstrual-period-jada-ann-quinn"/>
        <meta>
          <profile value="http://hl7.org/fhir/us/bfdr/StructureDefinition/Observation-last-menstrual-period"/>
        </meta>
        <text>
          <status value="generated"/><div xmlns="http://www.w3.org/1999/xhtml"><p><b>Generated Narrative: Observation</b><a name="observation-last-menstrual-period-jada-ann-quinn"> </a></p><div style="display: inline-block; background-color: #d9e0e7; padding: 6px; margin: 4px; border: 1px solid #8da1b4; border-radius: 5px; line-height: 60%"><p style="margin-bottom: 0px">Resource Observation &quot;observation-last-menstrual-period-jada-ann-quinn&quot; </p><p style="margin-bottom: 0px">Profile: <a href="StructureDefinition-Observation-last-menstrual-period.html">Observation - Last Menstrual Period</a></p></div><p><b>status</b>: final</p><p><b>code</b>: Last menstrual period start date <span style="background: LightGoldenRodYellow; margin: 4px; border: 1px solid khaki"> (<a href="https://loinc.org/">LOINC</a>#8665-2)</span></p><p><b>subject</b>: <a href="#Patient_patient-mother-jada-ann-quinn">See above (Patient/patient-mother-jada-ann-quinn: Patient - Mother (Jada Ann Quinn))</a></p><p><b>effective</b>: 2019-12-02</p><p><b>performer</b>: <a href="#Practitioner_practitioner-vital-records-janet-seito">See above (Practitioner/practitioner-vital-records-janet-seito)</a></p><p><b>value</b>: 2018-06-05</p></div>
        </text>
        <status value="final"/>
        <code>
          <coding>
            <system value="http://loinc.org"/>
            <code value="8665-2"/>
            <display value="Last menstrual period start date"/>
          </coding>
          <text value="Last menstrual period start date"/>
        </code>
        <subject>
          <reference value="Patient/patient-mother-jada-ann-quinn"/>
          <display value="Patient - Mother (Jada Ann Quinn)"/>
        </subject>
        <effectiveDateTime value="2019-12-02"/>
        <performer>
          <reference value="Practitioner/practitioner-vital-records-janet-seito"/>
        </performer>
        <valueDateTime value="2018-06-05"/>
      </Observation>
    </resource>
  </entry>
  <entry>
    <fullUrl value="http://www.example.org/fhir/Observation/observation-number-births-now-living-jada-ann-quinn"/>
    <resource>
      <Observation>
        <id value="observation-number-births-now-living-jada-ann-quinn"/>
        <meta>
          <profile value="http://hl7.org/fhir/us/bfdr/StructureDefinition/Observation-number-births-now-living"/>
        </meta>
        <text>
          <status value="generated"/><div xmlns="http://www.w3.org/1999/xhtml"><p><b>Generated Narrative: Observation</b><a name="observation-number-births-now-living-jada-ann-quinn"> </a></p><div style="display: inline-block; background-color: #d9e0e7; padding: 6px; margin: 4px; border: 1px solid #8da1b4; border-radius: 5px; line-height: 60%"><p style="margin-bottom: 0px">Resource Observation &quot;observation-number-births-now-living-jada-ann-quinn&quot; </p><p style="margin-bottom: 0px">Profile: <a href="StructureDefinition-Observation-number-births-now-living.html">Observation - Number of Births Now Living</a></p></div><p><b>status</b>: final</p><p><b>code</b>: [#] Births.still living <span style="background: LightGoldenRodYellow; margin: 4px; border: 1px solid khaki"> (<a href="https://loinc.org/">LOINC</a>#11638-4)</span></p><p><b>subject</b>: <a href="#Patient_patient-mother-jada-ann-quinn">See above (Patient/patient-mother-jada-ann-quinn: Patient - Mother (Jada Ann Quinn))</a></p><p><b>effective</b>: 2019-12-02</p><p><b>performer</b>: <a href="#Practitioner_practitioner-vital-records-janet-seito">See above (Practitioner/practitioner-vital-records-janet-seito)</a></p><p><b>value</b>: 1</p></div>
        </text>
        <status value="final"/>
        <code>
          <coding>
            <system value="http://loinc.org"/>
            <code value="11638-4"/>
            <display value="[#] Births.still living"/>
          </coding>
          <text value="[#] Births.still living"/>
        </code>
        <subject>
          <reference value="Patient/patient-mother-jada-ann-quinn"/>
          <display value="Patient - Mother (Jada Ann Quinn)"/>
        </subject>
        <effectiveDateTime value="2019-12-02"/>
        <performer>
          <reference value="Practitioner/practitioner-vital-records-janet-seito"/>
        </performer>
        <valueInteger value="1"/>
      </Observation>
    </resource>
  </entry>
  <entry>
    <fullUrl value="http://www.example.org/fhir/Observation/observation-number-births-now-dead-jada-ann-quinn"/>
    <resource>
      <Observation>
        <id value="observation-number-births-now-dead-jada-ann-quinn"/>
        <meta>
          <profile value="http://hl7.org/fhir/us/bfdr/StructureDefinition/Observation-number-births-now-dead"/>
        </meta>
        <text>
          <status value="generated"/><div xmlns="http://www.w3.org/1999/xhtml"><p><b>Generated Narrative: Observation</b><a name="observation-number-births-now-dead-jada-ann-quinn"> </a></p><div style="display: inline-block; background-color: #d9e0e7; padding: 6px; margin: 4px; border: 1px solid #8da1b4; border-radius: 5px; line-height: 60%"><p style="margin-bottom: 0px">Resource Observation &quot;observation-number-births-now-dead-jada-ann-quinn&quot; </p><p style="margin-bottom: 0px">Profile: <a href="StructureDefinition-Observation-number-births-now-dead.html">Observation - Number of Births Now Dead</a></p></div><p><b>status</b>: final</p><p><b>code</b>: Previous live births now dead # <span style="background: LightGoldenRodYellow; margin: 4px; border: 1px solid khaki"> (<a href="https://loinc.org/">LOINC</a>#68496-9)</span></p><p><b>subject</b>: <a href="#Patient_patient-mother-jada-ann-quinn">See above (Patient/patient-mother-jada-ann-quinn: Patient - Mother (Jada Ann Quinn))</a></p><p><b>effective</b>: 2019-12-02</p><p><b>performer</b>: <a href="#Practitioner_practitioner-vital-records-janet-seito">See above (Practitioner/practitioner-vital-records-janet-seito)</a></p><p><b>value</b>: 0</p></div>
        </text>
        <status value="final"/>
        <code>
          <coding>
            <system value="http://loinc.org"/>
            <code value="68496-9"/>
            <display value="Previous live births now dead #"/>
          </coding>
          <text value="Previous live births now dead #"/>
        </code>
        <subject>
          <reference value="Patient/patient-mother-jada-ann-quinn"/>
          <display value="Patient - Mother (Jada Ann Quinn)"/>
        </subject>
        <effectiveDateTime value="2019-12-02"/>
        <performer>
          <reference value="Practitioner/practitioner-vital-records-janet-seito"/>
        </performer>
        <valueInteger value="0"/>
      </Observation>
    </resource>
  </entry>
  <entry>
    <fullUrl value="http://www.example.org/fhir/Observation/observation-date-of-last-live-birth-jada-ann-quinn"/>
    <resource>
      <Observation>
        <id value="observation-date-of-last-live-birth-jada-ann-quinn"/>
        <meta>
          <profile value="http://hl7.org/fhir/us/bfdr/StructureDefinition/Observation-date-of-last-live-birth"/>
        </meta>
        <text>
          <status value="generated"/><div xmlns="http://www.w3.org/1999/xhtml"><p><b>Generated Narrative: Observation</b><a name="observation-date-of-last-live-birth-jada-ann-quinn"> </a></p><div style="display: inline-block; background-color: #d9e0e7; padding: 6px; margin: 4px; border: 1px solid #8da1b4; border-radius: 5px; line-height: 60%"><p style="margin-bottom: 0px">Resource Observation &quot;observation-date-of-last-live-birth-jada-ann-quinn&quot; </p><p style="margin-bottom: 0px">Profile: <a href="StructureDefinition-Observation-date-of-last-live-birth.html">Observation - Date of Last Live Birth</a></p></div><p><b>status</b>: final</p><p><b>code</b>: Date of last live birth <span style="background: LightGoldenRodYellow; margin: 4px; border: 1px solid khaki"> (<a href="https://loinc.org/">LOINC</a>#68499-3 &quot;Date last live birth&quot;)</span></p><p><b>subject</b>: <a href="#Patient_patient-mother-jada-ann-quinn">See above (Patient/patient-mother-jada-ann-quinn: Patient - Mother (Jada Ann Quinn))</a></p><p><b>effective</b>: 2019-12-02</p><p><b>performer</b>: <a href="#Practitioner_practitioner-vital-records-janet-seito">See above (Practitioner/practitioner-vital-records-janet-seito)</a></p><p><b>value</b>: 2014-11-20</p></div>
        </text>
        <status value="final"/>
        <code>
          <coding>
            <system value="http://loinc.org"/>
            <code value="68499-3"/>
            <display value="Date last live birth"/>
          </coding>
          <text value="Date of last live birth"/>
        </code>
        <subject>
          <reference value="Patient/patient-mother-jada-ann-quinn"/>
          <display value="Patient - Mother (Jada Ann Quinn)"/>
        </subject>
        <effectiveDateTime value="2019-12-02"/>
        <performer>
          <reference value="Practitioner/practitioner-vital-records-janet-seito"/>
        </performer>
        <valueDateTime value="2014-11-20"/>
      </Observation>
    </resource>
  </entry>
  <entry>
    <fullUrl value="http://www.example.org/fhir/Observation/observation-number-other-pregnancy-outcomes-jada-ann-quinn"/>
    <resource>
      <Observation>
        <id value="observation-number-other-pregnancy-outcomes-jada-ann-quinn"/>
        <meta>
          <profile value="http://hl7.org/fhir/us/bfdr/StructureDefinition/Observation-number-other-pregnancy-outcomes"/>
        </meta>
        <text>
          <status value="generated"/><div xmlns="http://www.w3.org/1999/xhtml"><p><b>Generated Narrative: Observation</b><a name="observation-number-other-pregnancy-outcomes-jada-ann-quinn"> </a></p><div style="display: inline-block; background-color: #d9e0e7; padding: 6px; margin: 4px; border: 1px solid #8da1b4; border-radius: 5px; line-height: 60%"><p style="margin-bottom: 0px">Resource Observation &quot;observation-number-other-pregnancy-outcomes-jada-ann-quinn&quot; </p><p style="margin-bottom: 0px">Profile: <a href="StructureDefinition-Observation-number-other-pregnancy-outcomes.html">Observation - Number of Other Pregnancy Outcomes</a></p></div><p><b>status</b>: final</p><p><b>code</b>: Other pregnancy outcomes # <span style="background: LightGoldenRodYellow; margin: 4px; border: 1px solid khaki"> (<a href="https://loinc.org/">LOINC</a>#69043-8)</span></p><p><b>subject</b>: <a href="#Patient_patient-mother-jada-ann-quinn">See above (Patient/patient-mother-jada-ann-quinn: Patient - Mother (Jada Ann Quinn))</a></p><p><b>effective</b>: 2019-12-02</p><p><b>performer</b>: <a href="#Practitioner_practitioner-vital-records-janet-seito">See above (Practitioner/practitioner-vital-records-janet-seito)</a></p><p><b>value</b>: 0</p></div>
        </text>
        <status value="final"/>
        <code>
          <coding>
            <system value="http://loinc.org"/>
            <code value="69043-8"/>
            <display value="Other pregnancy outcomes #"/>
          </coding>
          <text value="Other pregnancy outcomes #"/>
        </code>
        <subject>
          <reference value="Patient/patient-mother-jada-ann-quinn"/>
          <display value="Patient - Mother (Jada Ann Quinn)"/>
        </subject>
        <effectiveDateTime value="2019-12-02"/>
        <performer>
          <reference value="Practitioner/practitioner-vital-records-janet-seito"/>
        </performer>
        <valueInteger value="0"/>
      </Observation>
    </resource>
  </entry>
  <entry>
    <fullUrl value="http://www.example.org/fhir/Observation/observation-date-of-last-other-pregnancy-outcome-jada-ann-quinn"/>
    <resource>
      <Observation>
        <id value="observation-date-of-last-other-pregnancy-outcome-jada-ann-quinn"/>
        <meta>
          <profile value="http://hl7.org/fhir/us/bfdr/StructureDefinition/Observation-date-of-last-other-pregnancy-outcome"/>
        </meta>
        <text>
          <status value="generated"/><div xmlns="http://www.w3.org/1999/xhtml"><p><b>Generated Narrative: Observation</b><a name="observation-date-of-last-other-pregnancy-outcome-jada-ann-quinn"> </a></p><div style="display: inline-block; background-color: #d9e0e7; padding: 6px; margin: 4px; border: 1px solid #8da1b4; border-radius: 5px; line-height: 60%"><p style="margin-bottom: 0px">Resource Observation &quot;observation-date-of-last-other-pregnancy-outcome-jada-ann-quinn&quot; </p><p style="margin-bottom: 0px">Profile: <a href="StructureDefinition-Observation-date-of-last-other-pregnancy-outcome.html">Observation - Date of Last Other Pregnancy Outcome</a></p></div><p><b>status</b>: final</p><p><b>code</b>: Date of last other pregnancy outcome <span style="background: LightGoldenRodYellow; margin: 4px; border: 1px solid khaki"> (<a href="https://loinc.org/">LOINC</a>#68500-8 &quot;Date last other pregnancy outcome&quot;)</span></p><p><b>subject</b>: <a href="#Patient_patient-mother-jada-ann-quinn">See above (Patient/patient-mother-jada-ann-quinn: Patient - Mother (Jada Ann Quinn))</a></p><p><b>effective</b>: 2019-12-02</p><p><b>performer</b>: <a href="#Practitioner_practitioner-vital-records-janet-seito">See above (Practitioner/practitioner-vital-records-janet-seito)</a></p><p><b>value</b>: 2015-05</p></div>
        </text>
        <status value="final"/>
        <code>
          <coding>
            <system value="http://loinc.org"/>
            <code value="68500-8"/>
            <display value="Date last other pregnancy outcome"/>
          </coding>
          <text value="Date of last other pregnancy outcome"/>
        </code>
        <subject>
          <reference value="Patient/patient-mother-jada-ann-quinn"/>
          <display value="Patient - Mother (Jada Ann Quinn)"/>
        </subject>
        <effectiveDateTime value="2019-12-02"/>
        <performer>
          <reference value="Practitioner/practitioner-vital-records-janet-seito"/>
        </performer>
        <valueDateTime value="2015-05"/>
      </Observation>
    </resource>
  </entry>
  <entry>
    <fullUrl value="http://www.example.org/fhir/Coverage/coverage-principal-payer-for-delivery-jada-ann-quinn"/>
    <resource>
      <Coverage>
        <id value="coverage-principal-payer-for-delivery-jada-ann-quinn"/>
        <meta>
          <profile value="http://hl7.org/fhir/us/bfdr/StructureDefinition/Coverage-principal-payer-delivery"/>
        </meta>
        <text>
          <status value="generated"/><div xmlns="http://www.w3.org/1999/xhtml"><p><b>Generated Narrative: Coverage</b><a name="coverage-principal-payer-for-delivery-jada-ann-quinn"> </a></p><div style="display: inline-block; background-color: #d9e0e7; padding: 6px; margin: 4px; border: 1px solid #8da1b4; border-radius: 5px; line-height: 60%"><p style="margin-bottom: 0px">Resource Coverage &quot;coverage-principal-payer-for-delivery-jada-ann-quinn&quot; </p><p style="margin-bottom: 0px">Profile: <a href="StructureDefinition-Coverage-principal-payer-delivery.html">Coverage - Principal Payer for Delivery</a></p></div><p><b>status</b>: active</p><p><b>type</b>: Private Health Insurance <span style="background: LightGoldenRodYellow; margin: 4px; border: 1px solid khaki"> (<a href="https://nahdo.org/sopt">Source of Payment Typology</a>#5)</span></p><p><b>beneficiary</b>: <a href="#Patient_patient-mother-jada-ann-quinn">See above (Patient/patient-mother-jada-ann-quinn: Patient - Mother (Jada Ann Quinn))</a></p><p><b>payor</b>: <span>: Not asked</span></p></div>
        </text>
        <status value="active"/>
        <type>
          <coding>
            <system value="https://nahdo.org/sopt"/>
            <code value="5"/>
            <display value="Private Health Insurance"/>
          </coding>
          <text value="Private Health Insurance"/>
        </type>
        <beneficiary>
          <reference value="Patient/patient-mother-jada-ann-quinn"/>
          <display value="Patient - Mother (Jada Ann Quinn)"/>
        </beneficiary>
        <payor>
          <extension url="http://hl7.org/fhir/StructureDefinition/data-absent-reason">
            <valueCode value="not-asked"/>
          </extension>
          <display value="Not asked"/>
        </payor>
      </Coverage>
    </resource>
  </entry>
  <entry>
    <fullUrl value="http://www.example.org/fhir/Observation/observation-mother-delivery-weight-jada-ann-quinn"/>
    <resource>
      <Observation>
        <id value="observation-mother-delivery-weight-jada-ann-quinn"/>
        <meta>
          <profile value="http://hl7.org/fhir/us/bfdr/StructureDefinition/Observation-mother-delivery-weight"/>
        </meta>
        <text>
          <status value="generated"/><div xmlns="http://www.w3.org/1999/xhtml"><p><b>Generated Narrative: Observation</b><a name="observation-mother-delivery-weight-jada-ann-quinn"> </a></p><div style="display: inline-block; background-color: #d9e0e7; padding: 6px; margin: 4px; border: 1px solid #8da1b4; border-radius: 5px; line-height: 60%"><p style="margin-bottom: 0px">Resource Observation &quot;observation-mother-delivery-weight-jada-ann-quinn&quot; </p><p style="margin-bottom: 0px">Profile: <a href="StructureDefinition-Observation-mother-delivery-weight.html">Observation - Mother Delivery Weight</a></p></div><p><b>status</b>: final</p><p><b>category</b>: Vital Signs <span style="background: LightGoldenRodYellow; margin: 4px; border: 1px solid khaki"> (<a href="http://terminology.hl7.org/5.0.0/CodeSystem-observation-category.html">Observation Category Codes</a>#vital-signs)</span></p><p><b>code</b>: Mother's body weight --at delivery <span style="background: LightGoldenRodYellow; margin: 4px; border: 1px solid khaki"> (<a href="https://loinc.org/">LOINC</a>#69461-2)</span></p><p><b>subject</b>: <a href="#Patient_patient-mother-jada-ann-quinn">See above (Patient/patient-mother-jada-ann-quinn: Patient - Mother (Jada Ann Quinn))</a></p><p><b>effective</b>: 2019-02-12</p><p><b>performer</b>: <a href="#Practitioner_practitioner-vital-records-janet-seito">See above (Practitioner/practitioner-vital-records-janet-seito)</a></p><p><b>value</b>: 175 [lb_av]<span style="background: LightGoldenRodYellow"> (Details: UCUM code [lb_av] = '[lb_av]')</span></p></div>
        </text>
        <status value="final"/>
        <category>
          <coding>
            <system value="http://terminology.hl7.org/CodeSystem/observation-category"/>
            <code value="vital-signs"/>
            <display value="Vital Signs"/>
          </coding>
        </category>
        <code>
          <coding>
            <system value="http://loinc.org"/>
            <code value="69461-2"/>
            <display value="Mother's body weight --at delivery"/>
          </coding>
        </code>
        <subject>
          <reference value="Patient/patient-mother-jada-ann-quinn"/>
          <display value="Patient - Mother (Jada Ann Quinn)"/>
        </subject>
        <effectiveDateTime value="2019-02-12"/>
        <performer>
          <reference value="Practitioner/practitioner-vital-records-janet-seito"/>
        </performer>
        <valueQuantity>
          <value value="175"/>
          <system value="http://unitsofmeasure.org"/>
          <code value="[lb_av]"/>
        </valueQuantity>
      </Observation>
    </resource>
  </entry>
  <entry>
    <fullUrl value="http://www.example.org/fhir/Observation/observation-mother-height-jada-ann-quinn"/>
    <resource>
      <Observation>
        <id value="observation-mother-height-jada-ann-quinn"/>
        <meta>
          <profile value="http://hl7.org/fhir/us/bfdr/StructureDefinition/Observation-mother-height"/>
        </meta>
        <text>
          <status value="generated"/><div xmlns="http://www.w3.org/1999/xhtml"><p><b>Generated Narrative: Observation</b><a name="observation-mother-height-jada-ann-quinn"> </a></p><div style="display: inline-block; background-color: #d9e0e7; padding: 6px; margin: 4px; border: 1px solid #8da1b4; border-radius: 5px; line-height: 60%"><p style="margin-bottom: 0px">Resource Observation &quot;observation-mother-height-jada-ann-quinn&quot; </p><p style="margin-bottom: 0px">Profile: <a href="StructureDefinition-Observation-mother-height.html">Observation - Mother Height</a></p></div><p><b>status</b>: final</p><p><b>category</b>: Vital Signs <span style="background: LightGoldenRodYellow; margin: 4px; border: 1px solid khaki"> (<a href="http://terminology.hl7.org/5.0.0/CodeSystem-observation-category.html">Observation Category Codes</a>#vital-signs)</span></p><p><b>code</b>: Body height <span style="background: LightGoldenRodYellow; margin: 4px; border: 1px solid khaki"> (<a href="https://loinc.org/">LOINC</a>#8302-2)</span></p><p><b>subject</b>: <a href="#Patient_patient-mother-jada-ann-quinn">See above (Patient/patient-mother-jada-ann-quinn: Patient - Mother (Jada Ann Quinn))</a></p><p><b>effective</b>: 2019-02-10</p><p><b>performer</b>: <a href="#Patient_patient-mother-jada-ann-quinn">See above (Patient/patient-mother-jada-ann-quinn)</a></p><p><b>value</b>: 67 in<span style="background: LightGoldenRodYellow"> (Details: UCUM code [in_i] = '[in_i]')</span></p></div>
        </text>
        <status value="final"/>
        <category>
          <coding>
            <system value="http://terminology.hl7.org/CodeSystem/observation-category"/>
            <code value="vital-signs"/>
          </coding>
        </category>
        <code>
          <coding>
            <system value="http://loinc.org"/>
            <code value="8302-2"/>
          </coding>
        </code>
        <subject>
          <reference value="Patient/patient-mother-jada-ann-quinn"/>
          <display value="Patient - Mother (Jada Ann Quinn)"/>
        </subject>
        <effectiveDateTime value="2019-02-10"/>
        <performer>
          <reference value="Patient/patient-mother-jada-ann-quinn"/>
        </performer>
        <valueQuantity>
          <value value="67"/>
          <unit value="in"/>
          <system value="http://unitsofmeasure.org"/>
          <code value="[in_i]"/>
        </valueQuantity>
      </Observation>
    </resource>
  </entry>
  <entry>
    <fullUrl value="http://www.example.org/fhir/Observation/observation-mother-prepregnancy-weight-jada-ann-quinn"/>
    <resource>
      <Observation>
        <id value="observation-mother-prepregnancy-weight-jada-ann-quinn"/>
        <meta>
          <profile value="http://hl7.org/fhir/us/bfdr/StructureDefinition/Observation-mother-prepregnancy-weight"/>
        </meta>
        <text>
          <status value="generated"/><div xmlns="http://www.w3.org/1999/xhtml"><p><b>Generated Narrative: Observation</b><a name="observation-mother-prepregnancy-weight-jada-ann-quinn"> </a></p><div style="display: inline-block; background-color: #d9e0e7; padding: 6px; margin: 4px; border: 1px solid #8da1b4; border-radius: 5px; line-height: 60%"><p style="margin-bottom: 0px">Resource Observation &quot;observation-mother-prepregnancy-weight-jada-ann-quinn&quot; </p><p style="margin-bottom: 0px">Profile: <a href="StructureDefinition-Observation-mother-prepregnancy-weight.html">Observation - Mother Prepregnancy Weight</a></p></div><p><b>status</b>: final</p><p><b>category</b>: Vital Signs <span style="background: LightGoldenRodYellow; margin: 4px; border: 1px solid khaki"> (<a href="http://terminology.hl7.org/5.0.0/CodeSystem-observation-category.html">Observation Category Codes</a>#vital-signs)</span></p><p><b>code</b>: Body weight --pre current pregnancy <span style="background: LightGoldenRodYellow; margin: 4px; border: 1px solid khaki"> (<a href="https://loinc.org/">LOINC</a>#56077-1)</span></p><p><b>subject</b>: <a href="#Patient_patient-mother-jada-ann-quinn">See above (Patient/patient-mother-jada-ann-quinn: Patient - Mother (Jada Ann Quinn))</a></p><p><b>effective</b>: 2019-12-02</p><p><b>performer</b>: <a href="#Practitioner_practitioner-vital-records-janet-seito">See above (Practitioner/practitioner-vital-records-janet-seito)</a></p><p><b>value</b>: 145 [lb_av]<span style="background: LightGoldenRodYellow"> (Details: UCUM code [lb_av] = '[lb_av]')</span></p></div>
        </text>
        <status value="final"/>
        <category>
          <coding>
            <system value="http://terminology.hl7.org/CodeSystem/observation-category"/>
            <code value="vital-signs"/>
            <display value="Vital Signs"/>
          </coding>
        </category>
        <code>
          <coding>
            <system value="http://loinc.org"/>
            <code value="56077-1"/>
            <display value="Body weight --pre current pregnancy"/>
          </coding>
        </code>
        <subject>
          <reference value="Patient/patient-mother-jada-ann-quinn"/>
          <display value="Patient - Mother (Jada Ann Quinn)"/>
        </subject>
        <effectiveDateTime value="2019-12-02"/>
        <performer>
          <reference value="Practitioner/practitioner-vital-records-janet-seito"/>
        </performer>
        <valueQuantity>
          <value value="145"/>
          <system value="http://unitsofmeasure.org"/>
          <code value="[lb_av]"/>
        </valueQuantity>
      </Observation>
    </resource>
  </entry>
  <entry>
    <fullUrl value="http://www.example.org/fhir/Observation/observation-mother-received-wic-food-jada-ann-quinn"/>
    <resource>
      <Observation>
        <id value="observation-mother-received-wic-food-jada-ann-quinn"/>
        <meta>
          <profile value="http://hl7.org/fhir/us/bfdr/StructureDefinition/Observation-mother-received-wic-food"/>
        </meta>
        <text>
          <status value="generated"/><div xmlns="http://www.w3.org/1999/xhtml"><p><b>Generated Narrative: Observation</b><a name="observation-mother-received-wic-food-jada-ann-quinn"> </a></p><div style="display: inline-block; background-color: #d9e0e7; padding: 6px; margin: 4px; border: 1px solid #8da1b4; border-radius: 5px; line-height: 60%"><p style="margin-bottom: 0px">Resource Observation &quot;observation-mother-received-wic-food-jada-ann-quinn&quot; </p><p style="margin-bottom: 0px">Profile: <a href="StructureDefinition-Observation-mother-received-wic-food.html">Observation - Mother Recieved WIC Food</a></p></div><p><b>status</b>: final</p><p><b>code</b>: Mother WIC food recipient <span style="background: LightGoldenRodYellow; margin: 4px; border: 1px solid khaki"> (<a href="https://loinc.org/">LOINC</a>#87303-4)</span></p><p><b>subject</b>: <a href="#Patient_patient-mother-jada-ann-quinn">See above (Patient/patient-mother-jada-ann-quinn: Patient - Mother (Jada Ann Quinn))</a></p><p><b>focus</b>: <a href="#Patient_patient-child-babyg-quinn">See above (Patient/patient-child-babyg-quinn: BabyG Quinn)</a></p><p><b>effective</b>: 2019-12-02</p><p><b>performer</b>: <a href="#Practitioner_practitioner-vital-records-janet-seito">See above (Practitioner/practitioner-vital-records-janet-seito)</a></p><p><b>value</b>: Yes <span style="background: LightGoldenRodYellow; margin: 4px; border: 1px solid khaki"> (<a href="http://hl7.org/fhir/R4/v2/0136/index.html">v2 Y/N Indicator</a>#Y)</span></p></div>
        </text>
        <status value="final"/>
        <code>
          <coding>
            <system value="http://loinc.org"/>
            <code value="87303-4"/>
          </coding>
        </code>
        <subject>
          <reference value="Patient/patient-mother-jada-ann-quinn"/>
          <display value="Patient - Mother (Jada Ann Quinn)"/>
        </subject>
        <focus>
          <reference value="Patient/patient-child-babyg-quinn"/>
          <display value="BabyG Quinn"/>
        </focus>
        <effectiveDateTime value="2019-12-02"/>
        <performer>
          <reference value="Practitioner/practitioner-vital-records-janet-seito"/>
        </performer>
        <valueCodeableConcept>
          <coding>
            <system value="http://terminology.hl7.org/CodeSystem/v2-0136"/>
            <code value="Y"/>
            <display value="Yes"/>
          </coding>
        </valueCodeableConcept>
      </Observation>
    </resource>
  </entry>
  <entry>
    <fullUrl value="http://www.example.org/fhir/Observation/observation-cig-smoking-pregnancy-1-jada-ann-quinn"/>
    <resource>
      <Observation>
        <id value="observation-cig-smoking-pregnancy-1-jada-ann-quinn"/>
        <meta>
          <profile value="http://hl7.org/fhir/us/bfdr/StructureDefinition/Observation-cigarette-smoking-before-during-pregnancy"/>
        </meta>
        <text>
          <status value="generated"/><div xmlns="http://www.w3.org/1999/xhtml"><p><b>Generated Narrative: Observation</b><a name="observation-cig-smoking-pregnancy-1-jada-ann-quinn"> </a></p><div style="display: inline-block; background-color: #d9e0e7; padding: 6px; margin: 4px; border: 1px solid #8da1b4; border-radius: 5px; line-height: 60%"><p style="margin-bottom: 0px">Resource Observation &quot;observation-cig-smoking-pregnancy-1-jada-ann-quinn&quot; </p><p style="margin-bottom: 0px">Profile: <a href="StructureDefinition-Observation-cigarette-smoking-before-during-pregnancy.html">Observation - Cigarette Smoking Before and During Pregnancy</a></p></div><p><b>status</b>: final</p><p><b>code</b>: In the 3 months before you got pregnant, how many cigarettes did you smoke on an average day [PhenX] <span style="background: LightGoldenRodYellow; margin: 4px; border: 1px solid khaki"> (<a href="https://loinc.org/">LOINC</a>#64794-1)</span></p><p><b>subject</b>: <a href="#Patient_patient-mother-jada-ann-quinn">See above (Patient/patient-mother-jada-ann-quinn: Patient - Mother (Jada Ann Quinn))</a></p><p><b>focus</b>: <a href="#Patient_patient-child-babyg-quinn">See above (Patient/patient-child-babyg-quinn: BabyG Quinn)</a></p><p><b>effective</b>: 2019-12-02</p><p><b>performer</b>: <a href="#Patient_patient-mother-jada-ann-quinn">See above (Patient/patient-mother-jada-ann-quinn)</a></p><p><b>value</b>: 20</p></div>
        </text>
        <status value="final"/>
        <code>
          <coding>
            <system value="http://loinc.org"/>
            <code value="64794-1"/>
            <display value="In the 3 months before you got pregnant, how many cigarettes did you smoke on an average day [PhenX]"/>
          </coding>
          <text value="In the 3 months before you got pregnant, how many cigarettes did you smoke on an average day [PhenX]"/>
        </code>
        <subject>
          <reference value="Patient/patient-mother-jada-ann-quinn"/>
          <display value="Patient - Mother (Jada Ann Quinn)"/>
        </subject>
        <focus>
          <reference value="Patient/patient-child-babyg-quinn"/>
          <display value="BabyG Quinn"/>
        </focus>
        <effectiveDateTime value="2019-12-02"/>
        <performer>
          <reference value="Patient/patient-mother-jada-ann-quinn"/>
        </performer>
        <valueInteger value="20"/>
      </Observation>
    </resource>
  </entry>
  <entry>
    <fullUrl value="http://www.example.org/fhir/Observation/observation-cig-smoking-pregnancy-2-jada-ann-quinn"/>
    <resource>
      <Observation>
        <id value="observation-cig-smoking-pregnancy-2-jada-ann-quinn"/>
        <meta>
          <profile value="http://hl7.org/fhir/us/bfdr/StructureDefinition/Observation-cigarette-smoking-before-during-pregnancy"/>
        </meta>
        <text>
          <status value="generated"/><div xmlns="http://www.w3.org/1999/xhtml"><p><b>Generated Narrative: Observation</b><a name="observation-cig-smoking-pregnancy-2-jada-ann-quinn"> </a></p><div style="display: inline-block; background-color: #d9e0e7; padding: 6px; margin: 4px; border: 1px solid #8da1b4; border-radius: 5px; line-height: 60%"><p style="margin-bottom: 0px">Resource Observation &quot;observation-cig-smoking-pregnancy-2-jada-ann-quinn&quot; </p><p style="margin-bottom: 0px">Profile: <a href="StructureDefinition-Observation-cigarette-smoking-before-during-pregnancy.html">Observation - Cigarette Smoking Before and During Pregnancy</a></p></div><p><b>status</b>: final</p><p><b>code</b>: Cigarettes smoked per day by Mother--1st trimester <span style="background: LightGoldenRodYellow; margin: 4px; border: 1px solid khaki"> (<a href="https://loinc.org/">LOINC</a>#87298-6)</span></p><p><b>subject</b>: <a href="#Patient_patient-mother-jada-ann-quinn">See above (Patient/patient-mother-jada-ann-quinn: Patient - Mother (Jada Ann Quinn))</a></p><p><b>focus</b>: <a href="#Patient_patient-child-babyg-quinn">See above (Patient/patient-child-babyg-quinn: BabyG Quinn)</a></p><p><b>effective</b>: 2019-12-02</p><p><b>performer</b>: <a href="#Patient_patient-mother-jada-ann-quinn">See above (Patient/patient-mother-jada-ann-quinn)</a></p><p><b>value</b>: 3</p></div>
        </text>
        <status value="final"/>
        <code>
          <coding>
            <system value="http://loinc.org"/>
            <code value="87298-6"/>
            <display value="Cigarettes smoked per day by Mother--1st trimester"/>
          </coding>
          <text value="Cigarettes smoked per day by Mother--1st trimester"/>
        </code>
        <subject>
          <reference value="Patient/patient-mother-jada-ann-quinn"/>
          <display value="Patient - Mother (Jada Ann Quinn)"/>
        </subject>
        <focus>
          <reference value="Patient/patient-child-babyg-quinn"/>
          <display value="BabyG Quinn"/>
        </focus>
        <effectiveDateTime value="2019-12-02"/>
        <performer>
          <reference value="Patient/patient-mother-jada-ann-quinn"/>
        </performer>
        <valueInteger value="3"/>
      </Observation>
    </resource>
  </entry>
  <entry>
    <fullUrl value="http://www.example.org/fhir/Observation/observation-cig-smoking-pregnancy-3-jada-ann-quinn"/>
    <resource>
      <Observation>
        <id value="observation-cig-smoking-pregnancy-3-jada-ann-quinn"/>
        <meta>
          <profile value="http://hl7.org/fhir/us/bfdr/StructureDefinition/Observation-cigarette-smoking-before-during-pregnancy"/>
        </meta>
        <text>
          <status value="generated"/><div xmlns="http://www.w3.org/1999/xhtml"><p><b>Generated Narrative: Observation</b><a name="observation-cig-smoking-pregnancy-3-jada-ann-quinn"> </a></p><div style="display: inline-block; background-color: #d9e0e7; padding: 6px; margin: 4px; border: 1px solid #8da1b4; border-radius: 5px; line-height: 60%"><p style="margin-bottom: 0px">Resource Observation &quot;observation-cig-smoking-pregnancy-3-jada-ann-quinn&quot; </p><p style="margin-bottom: 0px">Profile: <a href="StructureDefinition-Observation-cigarette-smoking-before-during-pregnancy.html">Observation - Cigarette Smoking Before and During Pregnancy</a></p></div><p><b>status</b>: final</p><p><b>code</b>: Cigarettes smoked per day by Mother--2nd trimester <span style="background: LightGoldenRodYellow; margin: 4px; border: 1px solid khaki"> (<a href="https://loinc.org/">LOINC</a>#87299-4)</span></p><p><b>subject</b>: <a href="#Patient_patient-mother-jada-ann-quinn">See above (Patient/patient-mother-jada-ann-quinn: Patient - Mother (Jada Ann Quinn))</a></p><p><b>focus</b>: <a href="#Patient_patient-child-babyg-quinn">See above (Patient/patient-child-babyg-quinn: BabyG Quinn)</a></p><p><b>effective</b>: 2019-12-02</p><p><b>performer</b>: <a href="#Patient_patient-mother-jada-ann-quinn">See above (Patient/patient-mother-jada-ann-quinn)</a></p><p><b>value</b>: 1</p></div>
        </text>
        <status value="final"/>
        <code>
          <coding>
            <system value="http://loinc.org"/>
            <code value="87299-4"/>
            <display value="Cigarettes smoked per day by Mother--2nd trimester"/>
          </coding>
          <text value="Cigarettes smoked per day by Mother--2nd trimester"/>
        </code>
        <subject>
          <reference value="Patient/patient-mother-jada-ann-quinn"/>
          <display value="Patient - Mother (Jada Ann Quinn)"/>
        </subject>
        <focus>
          <reference value="Patient/patient-child-babyg-quinn"/>
          <display value="BabyG Quinn"/>
        </focus>
        <effectiveDateTime value="2019-12-02"/>
        <performer>
          <reference value="Patient/patient-mother-jada-ann-quinn"/>
        </performer>
        <valueInteger value="1"/>
      </Observation>
    </resource>
  </entry>
  <entry>
    <fullUrl value="http://www.example.org/fhir/Observation/observation-cig-smoking-pregnancy-4-jada-ann-quinn"/>
    <resource>
      <Observation>
        <id value="observation-cig-smoking-pregnancy-4-jada-ann-quinn"/>
        <meta>
          <profile value="http://hl7.org/fhir/us/bfdr/StructureDefinition/Observation-cigarette-smoking-before-during-pregnancy"/>
        </meta>
        <text>
          <status value="generated"/><div xmlns="http://www.w3.org/1999/xhtml"><p><b>Generated Narrative: Observation</b><a name="observation-cig-smoking-pregnancy-4-jada-ann-quinn"> </a></p><div style="display: inline-block; background-color: #d9e0e7; padding: 6px; margin: 4px; border: 1px solid #8da1b4; border-radius: 5px; line-height: 60%"><p style="margin-bottom: 0px">Resource Observation &quot;observation-cig-smoking-pregnancy-4-jada-ann-quinn&quot; </p><p style="margin-bottom: 0px">Profile: <a href="StructureDefinition-Observation-cigarette-smoking-before-during-pregnancy.html">Observation - Cigarette Smoking Before and During Pregnancy</a></p></div><p><b>status</b>: final</p><p><b>code</b>: In the last 3 months of your pregnancy, how many cigarettes did you smoke on an average day [PhenX] <span style="background: LightGoldenRodYellow; margin: 4px; border: 1px solid khaki"> (<a href="https://loinc.org/">LOINC</a>#64795-8)</span></p><p><b>subject</b>: <a href="#Patient_patient-mother-jada-ann-quinn">See above (Patient/patient-mother-jada-ann-quinn: Patient - Mother (Jada Ann Quinn))</a></p><p><b>focus</b>: <a href="#Patient_patient-child-babyg-quinn">See above (Patient/patient-child-babyg-quinn: BabyG Quinn)</a></p><p><b>effective</b>: 2019-12-02</p><p><b>performer</b>: <a href="#Patient_patient-mother-jada-ann-quinn">See above (Patient/patient-mother-jada-ann-quinn)</a></p><p><b>value</b>: 0</p></div>
        </text>
        <status value="final"/>
        <code>
          <coding>
            <system value="http://loinc.org"/>
            <code value="64795-8"/>
            <display value="In the last 3 months of your pregnancy, how many cigarettes did you smoke on an average day [PhenX]"/>
          </coding>
          <text value="In the last 3 months of your pregnancy, how many cigarettes did you smoke on an average day [PhenX]"/>
        </code>
        <subject>
          <reference value="Patient/patient-mother-jada-ann-quinn"/>
          <display value="Patient - Mother (Jada Ann Quinn)"/>
        </subject>
        <focus>
          <reference value="Patient/patient-child-babyg-quinn"/>
          <display value="BabyG Quinn"/>
        </focus>
        <effectiveDateTime value="2019-12-02"/>
        <performer>
          <reference value="Patient/patient-mother-jada-ann-quinn"/>
        </performer>
        <valueInteger value="0"/>
      </Observation>
    </resource>
  </entry>
  <entry>
    <fullUrl value="http://www.example.org/fhir/Condition/condition-prepregnancy-diabetes-jada-ann-quinn"/>
    <resource>
      <Condition>
        <id value="condition-prepregnancy-diabetes-jada-ann-quinn"/>
        <meta>
          <profile value="http://hl7.org/fhir/us/bfdr/StructureDefinition/Condition-prepregnancy-diabetes"/>
        </meta>
        <text>
          <status value="generated"/><div xmlns="http://www.w3.org/1999/xhtml"><p><b>Generated Narrative: Condition</b><a name="condition-prepregnancy-diabetes-jada-ann-quinn"> </a></p><div style="display: inline-block; background-color: #d9e0e7; padding: 6px; margin: 4px; border: 1px solid #8da1b4; border-radius: 5px; line-height: 60%"><p style="margin-bottom: 0px">Resource Condition &quot;condition-prepregnancy-diabetes-jada-ann-quinn&quot; </p><p style="margin-bottom: 0px">Profile: <a href="StructureDefinition-Condition-prepregnancy-diabetes.html">Condition - Prepregnancy Diabetes</a></p></div><p><b>clinicalStatus</b>: Active <span style="background: LightGoldenRodYellow; margin: 4px; border: 1px solid khaki"> (<a href="http://terminology.hl7.org/5.0.0/CodeSystem-condition-clinical.html">Condition Clinical Status Codes</a>#active)</span></p><p><b>category</b>: Problem List Item <span style="background: LightGoldenRodYellow; margin: 4px; border: 1px solid khaki"> (<a href="http://terminology.hl7.org/5.0.0/CodeSystem-condition-category.html">Condition Category Codes</a>#problem-list-item)</span>, Mothers Risk factors in this pregnancy [US Standard Certificate of Live Birth] <span style="background: LightGoldenRodYellow; margin: 4px; border: 1px solid khaki"> (<a href="https://loinc.org/">LOINC</a>#73775-9)</span></p><p><b>code</b>: Diabetes mellitus (disorder) <span style="background: LightGoldenRodYellow; margin: 4px; border: 1px solid khaki"> (<a href="https://browser.ihtsdotools.org/">SNOMED CT</a>#73211009)</span></p><p><b>subject</b>: <a href="#Patient_patient-mother-jada-ann-quinn">See above (Patient/patient-mother-jada-ann-quinn: Patient - Mother (Jada Ann Quinn))</a></p><p><b>onset</b>: 2015-02-12</p></div>
        </text>
        <clinicalStatus>
          <coding>
            <system value="http://terminology.hl7.org/CodeSystem/condition-clinical"/>
            <code value="active"/>
            <display value="Active"/>
          </coding>
          <text value="Active"/>
        </clinicalStatus>
        <category>
          <coding>
            <system value="http://terminology.hl7.org/CodeSystem/condition-category"/>
            <code value="problem-list-item"/>
          </coding>
        </category>
        <category>
          <coding>
            <system value="http://loinc.org"/>
            <code value="73775-9"/>
          </coding>
        </category>
        <code>
          <coding>
            <system value="http://snomed.info/sct"/>
            <code value="73211009"/>
            <display value="Diabetes mellitus (disorder)"/>
          </coding>
          <text value="Diabetes mellitus (disorder)"/>
        </code>
        <subject>
          <reference value="Patient/patient-mother-jada-ann-quinn"/>
          <display value="Patient - Mother (Jada Ann Quinn)"/>
        </subject>
        <onsetDateTime value="2015-02-12"/>
      </Condition>
    </resource>
  </entry>
  <entry>
    <fullUrl value="http://www.example.org/fhir/Condition/condition-gestational-hypertension-jada-ann-quinn"/>
    <resource>
      <Condition>
        <id value="condition-gestational-hypertension-jada-ann-quinn"/>
        <meta>
          <profile value="http://hl7.org/fhir/us/bfdr/StructureDefinition/Condition-gestational-hypertension"/>
        </meta>
        <text>
          <status value="generated"/><div xmlns="http://www.w3.org/1999/xhtml"><p><b>Generated Narrative: Condition</b><a name="condition-gestational-hypertension-jada-ann-quinn"> </a></p><div style="display: inline-block; background-color: #d9e0e7; padding: 6px; margin: 4px; border: 1px solid #8da1b4; border-radius: 5px; line-height: 60%"><p style="margin-bottom: 0px">Resource Condition &quot;condition-gestational-hypertension-jada-ann-quinn&quot; </p><p style="margin-bottom: 0px">Profile: <a href="StructureDefinition-Condition-gestational-hypertension.html">Condition - Gestational Hypertension</a></p></div><p><b>clinicalStatus</b>: Active <span style="background: LightGoldenRodYellow; margin: 4px; border: 1px solid khaki"> (<a href="http://terminology.hl7.org/5.0.0/CodeSystem-condition-clinical.html">Condition Clinical Status Codes</a>#active)</span></p><p><b>category</b>: Problem List Item <span style="background: LightGoldenRodYellow; margin: 4px; border: 1px solid khaki"> (<a href="http://terminology.hl7.org/5.0.0/CodeSystem-condition-category.html">Condition Category Codes</a>#problem-list-item)</span>, Mothers Risk factors in this pregnancy [US Standard Certificate of Live Birth] <span style="background: LightGoldenRodYellow; margin: 4px; border: 1px solid khaki"> (<a href="https://loinc.org/">LOINC</a>#73775-9)</span></p><p><b>code</b>: Pregnancy-induced hypertension (disorder) <span style="background: LightGoldenRodYellow; margin: 4px; border: 1px solid khaki"> (<a href="https://browser.ihtsdotools.org/">SNOMED CT</a>#48194001)</span></p><p><b>subject</b>: <a href="#Patient_patient-mother-jada-ann-quinn">See above (Patient/patient-mother-jada-ann-quinn: Patient - Mother (Jada Ann Quinn))</a></p></div>
        </text>
        <clinicalStatus>
          <coding>
            <system value="http://terminology.hl7.org/CodeSystem/condition-clinical"/>
            <code value="active"/>
            <display value="Active"/>
          </coding>
          <text value="Active"/>
        </clinicalStatus>
        <category>
          <coding>
            <system value="http://terminology.hl7.org/CodeSystem/condition-category"/>
            <code value="problem-list-item"/>
          </coding>
        </category>
        <category>
          <coding>
            <system value="http://loinc.org"/>
            <code value="73775-9"/>
          </coding>
        </category>
        <code>
          <coding>
            <system value="http://snomed.info/sct"/>
            <code value="48194001"/>
            <display value="Pregnancy-induced hypertension (disorder)"/>
          </coding>
          <text value="Pregnancy-induced hypertension (disorder)"/>
        </code>
        <subject>
          <reference value="Patient/patient-mother-jada-ann-quinn"/>
          <display value="Patient - Mother (Jada Ann Quinn)"/>
        </subject>
      </Condition>
    </resource>
  </entry>
  <entry>
    <fullUrl value="http://www.example.org/fhir/Observation/observation-number-previous-cesareans-jada-ann-quinn"/>
    <resource>
      <Observation>
        <id value="observation-number-previous-cesareans-jada-ann-quinn"/>
        <meta>
          <profile value="http://hl7.org/fhir/us/bfdr/StructureDefinition/Observation-number-previous-cesareans"/>
        </meta>
        <text>
          <status value="generated"/><div xmlns="http://www.w3.org/1999/xhtml"><p><b>Generated Narrative: Observation</b><a name="observation-number-previous-cesareans-jada-ann-quinn"> </a></p><div style="display: inline-block; background-color: #d9e0e7; padding: 6px; margin: 4px; border: 1px solid #8da1b4; border-radius: 5px; line-height: 60%"><p style="margin-bottom: 0px">Resource Observation &quot;observation-number-previous-cesareans-jada-ann-quinn&quot; </p><p style="margin-bottom: 0px">Profile: <a href="StructureDefinition-Observation-number-previous-cesareans.html">Observation - Number of Previous Cesareans</a></p></div><p><b>status</b>: final</p><p><b>code</b>: Previous cesarean deliveries # <span style="background: LightGoldenRodYellow; margin: 4px; border: 1px solid khaki"> (<a href="https://loinc.org/">LOINC</a>#68497-7)</span></p><p><b>subject</b>: <a href="#Patient_patient-mother-jada-ann-quinn">See above (Patient/patient-mother-jada-ann-quinn: Patient - Mother (Jada Ann Quinn))</a></p><p><b>effective</b>: 2019-12-02</p><p><b>performer</b>: <a href="#Practitioner_practitioner-vital-records-janet-seito">See above (Practitioner/practitioner-vital-records-janet-seito)</a></p><p><b>value</b>: 1</p></div>
        </text>
        <status value="final"/>
        <code>
          <coding>
            <system value="http://loinc.org"/>
            <code value="68497-7"/>
            <display value="Previous cesarean deliveries #"/>
          </coding>
          <text value="Previous cesarean deliveries #"/>
        </code>
        <subject>
          <reference value="Patient/patient-mother-jada-ann-quinn"/>
          <display value="Patient - Mother (Jada Ann Quinn)"/>
        </subject>
        <effectiveDateTime value="2019-12-02"/>
        <performer>
          <reference value="Practitioner/practitioner-vital-records-janet-seito"/>
        </performer>
        <valueInteger value="1"/>
      </Observation>
    </resource>
  </entry>
  <entry>
    <fullUrl value="http://www.example.org/fhir/Condition/condition-infection-present-during-pregnancy-jada-ann-quinn"/>
    <resource>
      <Condition>
        <id value="condition-infection-present-during-pregnancy-jada-ann-quinn"/>
        <meta>
          <profile value="http://hl7.org/fhir/us/bfdr/StructureDefinition/Condition-infection-present-during-pregnancy"/>
        </meta>
        <text>
          <status value="generated"/><div xmlns="http://www.w3.org/1999/xhtml"><p><b>Generated Narrative: Condition</b><a name="condition-infection-present-during-pregnancy-jada-ann-quinn"> </a></p><div style="display: inline-block; background-color: #d9e0e7; padding: 6px; margin: 4px; border: 1px solid #8da1b4; border-radius: 5px; line-height: 60%"><p style="margin-bottom: 0px">Resource Condition &quot;condition-infection-present-during-pregnancy-jada-ann-quinn&quot; </p><p style="margin-bottom: 0px">Profile: <a href="StructureDefinition-Condition-infection-present-during-pregnancy.html">Condition - Infection Present During Pregnancy</a></p></div><p><b>clinicalStatus</b>: Active <span style="background: LightGoldenRodYellow; margin: 4px; border: 1px solid khaki"> (<a href="http://terminology.hl7.org/5.0.0/CodeSystem-condition-clinical.html">Condition Clinical Status Codes</a>#active)</span></p><p><b>category</b>: Problem List Item <span style="background: LightGoldenRodYellow; margin: 4px; border: 1px solid khaki"> (<a href="http://terminology.hl7.org/5.0.0/CodeSystem-condition-category.html">Condition Category Codes</a>#problem-list-item)</span>, Infections present AndOr treated during this pregnancy for live birth [US Standard Certificate of Live Birth] <span style="background: LightGoldenRodYellow; margin: 4px; border: 1px solid khaki"> (<a href="https://loinc.org/">LOINC</a>#72519-2)</span></p><p><b>code</b>: Chlamydial infection (disorder) <span style="background: LightGoldenRodYellow; margin: 4px; border: 1px solid khaki"> (<a href="https://browser.ihtsdotools.org/">SNOMED CT</a>#105629000)</span></p><p><b>subject</b>: <a href="#Patient_patient-mother-jada-ann-quinn">See above (Patient/patient-mother-jada-ann-quinn: Patient - Mother (Jada Ann Quinn))</a></p></div>
        </text>
        <clinicalStatus>
          <coding>
            <system value="http://terminology.hl7.org/CodeSystem/condition-clinical"/>
            <code value="active"/>
            <display value="Active"/>
          </coding>
          <text value="Active"/>
        </clinicalStatus>
        <category>
          <coding>
            <system value="http://terminology.hl7.org/CodeSystem/condition-category"/>
            <code value="problem-list-item"/>
            <display value="Problem List Item"/>
          </coding>
        </category>
        <category>
          <coding>
            <system value="http://loinc.org"/>
            <code value="72519-2"/>
          </coding>
        </category>
        <code>
          <coding>
            <system value="http://snomed.info/sct"/>
            <code value="105629000"/>
            <display value="Chlamydial infection (disorder)"/>
          </coding>
          <text value="Chlamydial infection (disorder)"/>
        </code>
        <subject>
          <reference value="Patient/patient-mother-jada-ann-quinn"/>
          <display value="Patient - Mother (Jada Ann Quinn)"/>
        </subject>
      </Condition>
    </resource>
  </entry>
  <entry>
    <fullUrl value="http://www.example.org/fhir/Procedure/procedure-obstetric-procedure-jada-ann-quinn"/>
    <resource>
      <Procedure>
        <id value="procedure-obstetric-procedure-jada-ann-quinn"/>
        <meta>
          <profile value="http://hl7.org/fhir/us/bfdr/StructureDefinition/Procedure-obstetric"/>
        </meta>
        <text>
          <status value="generated"/><div xmlns="http://www.w3.org/1999/xhtml"><p><b>Generated Narrative: Procedure</b><a name="procedure-obstetric-procedure-jada-ann-quinn"> </a></p><div style="display: inline-block; background-color: #d9e0e7; padding: 6px; margin: 4px; border: 1px solid #8da1b4; border-radius: 5px; line-height: 60%"><p style="margin-bottom: 0px">Resource Procedure &quot;procedure-obstetric-procedure-jada-ann-quinn&quot; </p><p style="margin-bottom: 0px">Profile: <a href="StructureDefinition-Procedure-obstetric.html">Procedure - Obstetric</a></p></div><p><b>status</b>: completed</p><p><b>code</b>: External cephalic version: Failed <span style="background: LightGoldenRodYellow; margin: 4px; border: 1px solid khaki"> (<a href="https://browser.ihtsdotools.org/">SNOMED CT</a>#240278000 &quot;External cephalic version (procedure)&quot;)</span></p><p><b>subject</b>: <a href="#Patient_patient-mother-jada-ann-quinn">See above (Patient/patient-mother-jada-ann-quinn: Patient - Mother (Jada Ann Quinn))</a></p><p><b>performed</b>: 2019-02-07 08:30:00-0700 --&gt; 2019-02-07 08:45:00-0700</p><p><b>outcome</b>: External cephalic version: Unsuccessful <span style="background: LightGoldenRodYellow; margin: 4px; border: 1px solid khaki"> (<a href="https://browser.ihtsdotools.org/">SNOMED CT</a>#385671000 &quot;Unsuccessful&quot;)</span></p></div>
        </text>
        <status value="completed"/>
        <code>
          <coding>
            <system value="http://snomed.info/sct"/>
            <code value="240278000"/>
            <display value="External cephalic version (procedure)"/>
          </coding>
          <text value="External cephalic version: Failed"/>
        </code>
        <subject>
          <reference value="Patient/patient-mother-jada-ann-quinn"/>
          <display value="Patient - Mother (Jada Ann Quinn)"/>
        </subject>
        <performedPeriod>
          <start value="2019-02-07T08:30:00-07:00"/>
          <end value="2019-02-07T08:45:00-07:00"/>
        </performedPeriod>
        <outcome>
          <coding>
            <system value="http://snomed.info/sct"/>
            <code value="385671000"/>
            <display value="Unsuccessful"/>
          </coding>
          <text value="External cephalic version: Unsuccessful"/>
        </outcome>
      </Procedure>
    </resource>
  </entry>
  <entry>
    <fullUrl value="http://www.example.org/fhir/Condition/condition-chorioamnionitis-jada-ann-quinn"/>
    <resource>
      <Condition>
        <id value="condition-chorioamnionitis-jada-ann-quinn"/>
        <meta>
          <profile value="http://hl7.org/fhir/us/bfdr/StructureDefinition/Condition-chorioamnionitis"/>
        </meta>
        <text>
          <status value="generated"/><div xmlns="http://www.w3.org/1999/xhtml"><p><b>Generated Narrative: Condition</b><a name="condition-chorioamnionitis-jada-ann-quinn"> </a></p><div style="display: inline-block; background-color: #d9e0e7; padding: 6px; margin: 4px; border: 1px solid #8da1b4; border-radius: 5px; line-height: 60%"><p style="margin-bottom: 0px">Resource Condition &quot;condition-chorioamnionitis-jada-ann-quinn&quot; </p><p style="margin-bottom: 0px">Profile: <a href="StructureDefinition-Condition-chorioamnionitis.html">Condition - Chorioamnionitis</a></p></div><p><b>clinicalStatus</b>: Active <span style="background: LightGoldenRodYellow; margin: 4px; border: 1px solid khaki"> (<a href="http://terminology.hl7.org/5.0.0/CodeSystem-condition-clinical.html">Condition Clinical Status Codes</a>#active)</span></p><p><b>category</b>: Problem List Item <span style="background: LightGoldenRodYellow; margin: 4px; border: 1px solid khaki"> (<a href="http://terminology.hl7.org/5.0.0/CodeSystem-condition-category.html">Condition Category Codes</a>#problem-list-item)</span>, Characteristics of labor and delivery [US Standard Certificate of Live Birth] <span style="background: LightGoldenRodYellow; margin: 4px; border: 1px solid khaki"> (<a href="https://loinc.org/">LOINC</a>#73813-8)</span></p><p><b>code</b>: Chorioamnionitis (disorder) <span style="background: LightGoldenRodYellow; margin: 4px; border: 1px solid khaki"> (<a href="https://browser.ihtsdotools.org/">SNOMED CT</a>#11612004)</span></p><p><b>subject</b>: <a href="#Patient_patient-mother-jada-ann-quinn">See above (Patient/patient-mother-jada-ann-quinn: Patient - Mother (Jada Ann Quinn))</a></p></div>
        </text>
        <clinicalStatus>
          <coding>
            <system value="http://terminology.hl7.org/CodeSystem/condition-clinical"/>
            <code value="active"/>
            <display value="Active"/>
          </coding>
          <text value="Active"/>
        </clinicalStatus>
        <category>
          <coding>
            <system value="http://terminology.hl7.org/CodeSystem/condition-category"/>
            <code value="problem-list-item"/>
          </coding>
        </category>
        <category>
          <coding>
            <system value="http://loinc.org"/>
            <code value="73813-8"/>
          </coding>
        </category>
        <code>
          <coding>
            <system value="http://snomed.info/sct"/>
            <code value="11612004"/>
            <display value="Chorioamnionitis (disorder)"/>
          </coding>
        </code>
        <subject>
          <reference value="Patient/patient-mother-jada-ann-quinn"/>
          <display value="Patient - Mother (Jada Ann Quinn)"/>
        </subject>
      </Condition>
    </resource>
  </entry>
  <entry>
    <fullUrl value="http://www.example.org/fhir/Procedure/procedure-induction-of-labor-jada-ann-quinn"/>
    <resource>
      <Procedure>
        <id value="procedure-induction-of-labor-jada-ann-quinn"/>
        <meta>
          <profile value="http://hl7.org/fhir/us/bfdr/StructureDefinition/Procedure-induction-of-labor"/>
        </meta>
        <text>
          <status value="generated"/><div xmlns="http://www.w3.org/1999/xhtml"><p><b>Generated Narrative: Procedure</b><a name="procedure-induction-of-labor-jada-ann-quinn"> </a></p><div style="display: inline-block; background-color: #d9e0e7; padding: 6px; margin: 4px; border: 1px solid #8da1b4; border-radius: 5px; line-height: 60%"><p style="margin-bottom: 0px">Resource Procedure &quot;procedure-induction-of-labor-jada-ann-quinn&quot; </p><p style="margin-bottom: 0px">Profile: <a href="StructureDefinition-Procedure-induction-of-labor.html">Procedure - Induction of Labor</a></p></div><p><b>status</b>: completed</p><p><b>code</b>: Induction of labor (procedure) <span style="background: LightGoldenRodYellow; margin: 4px; border: 1px solid khaki"> (<a href="https://browser.ihtsdotools.org/">SNOMED CT</a>#236958009)</span></p><p><b>subject</b>: <a href="#Patient_patient-mother-jada-ann-quinn">See above (Patient/patient-mother-jada-ann-quinn: Patient - Mother (Jada Ann Quinn))</a></p><p><b>performed</b>: 2019-02-07 08:30:00-0700 --&gt; 2019-02-07 08:45:00-0700</p></div>
        </text>
        <status value="completed"/>
        <code>
          <coding>
            <system value="http://snomed.info/sct"/>
            <code value="236958009"/>
            <display value="Induction of labor (procedure)"/>
          </coding>
        </code>
        <subject>
          <reference value="Patient/patient-mother-jada-ann-quinn"/>
          <display value="Patient - Mother (Jada Ann Quinn)"/>
        </subject>
        <performedPeriod>
          <start value="2019-02-07T08:30:00-07:00"/>
          <end value="2019-02-07T08:45:00-07:00"/>
        </performedPeriod>
      </Procedure>
    </resource>
  </entry>
  <entry>
    <fullUrl value="http://www.example.org/fhir/Observation/observation-fetal-presentation-babyg-quinn"/>
    <resource>
      <Observation>
        <id value="observation-fetal-presentation-babyg-quinn"/>
        <meta>
          <profile value="http://hl7.org/fhir/us/bfdr/StructureDefinition/Observation-fetal-presentation"/>
        </meta>
        <text>
          <status value="generated"/><div xmlns="http://www.w3.org/1999/xhtml"><p><b>Generated Narrative: Observation</b><a name="observation-fetal-presentation-babyg-quinn"> </a></p><div style="display: inline-block; background-color: #d9e0e7; padding: 6px; margin: 4px; border: 1px solid #8da1b4; border-radius: 5px; line-height: 60%"><p style="margin-bottom: 0px">Resource Observation &quot;observation-fetal-presentation-babyg-quinn&quot; </p><p style="margin-bottom: 0px">Profile: <a href="StructureDefinition-Observation-fetal-presentation.html">Observation - Fetal Presentation at Birth/Delivery</a></p></div><p><b>status</b>: final</p><p><b>code</b>: Fetal presentation--at birth [US Standard Certificate of Live Birth] <span style="background: LightGoldenRodYellow; margin: 4px; border: 1px solid khaki"> (<a href="https://loinc.org/">LOINC</a>#73761-9)</span></p><p><b>subject</b>: <a href="#Patient_patient-child-babyg-quinn">See above (Patient/patient-child-babyg-quinn: Patient - Child (Baby G Quinn))</a></p><p><b>effective</b>: 2019-12-02</p><p><b>performer</b>: <a href="#Practitioner_practitioner-vital-records-janet-seito">See above (Practitioner/practitioner-vital-records-janet-seito)</a></p><p><b>value</b>: Breech presentation (finding) <span style="background: LightGoldenRodYellow; margin: 4px; border: 1px solid khaki"> (<a href="https://browser.ihtsdotools.org/">SNOMED CT</a>#6096002)</span></p></div>
        </text>
        <status value="final"/>
        <code>
          <coding>
            <system value="http://loinc.org"/>
            <code value="73761-9"/>
          </coding>
        </code>
        <subject>
          <reference value="Patient/patient-child-babyg-quinn"/>
          <display value="Patient - Child (Baby G Quinn)"/>
        </subject>
        <effectiveDateTime value="2019-12-02"/>
        <performer>
          <reference value="Practitioner/practitioner-vital-records-janet-seito"/>
        </performer>
        <valueCodeableConcept>
          <coding>
            <system value="http://snomed.info/sct"/>
            <code value="6096002"/>
            <display value="Breech presentation (finding)"/>
          </coding>
        </valueCodeableConcept>
      </Observation>
    </resource>
  </entry>
  <entry>
    <fullUrl value="http://www.example.org/fhir/Procedure/procedure-final-route-method-delivery-babyg-quinn"/>
    <resource>
      <Procedure>
        <id value="procedure-final-route-method-delivery-babyg-quinn"/>
        <meta>
          <profile value="http://hl7.org/fhir/us/bfdr/StructureDefinition/Procedure-final-route-method-delivery"/>
        </meta>
        <text>
          <status value="generated"/><div xmlns="http://www.w3.org/1999/xhtml"><p><b>Generated Narrative: Procedure</b><a name="procedure-final-route-method-delivery-babyg-quinn"> </a></p><div style="display: inline-block; background-color: #d9e0e7; padding: 6px; margin: 4px; border: 1px solid #8da1b4; border-radius: 5px; line-height: 60%"><p style="margin-bottom: 0px">Resource Procedure &quot;procedure-final-route-method-delivery-babyg-quinn&quot; </p><p style="margin-bottom: 0px">Profile: <a href="StructureDefinition-Procedure-final-route-method-delivery.html">Procedure - Final Route and Method of Delivery</a></p></div><p><b>status</b>: completed</p><p><b>code</b>: Cesarean section <span style="background: LightGoldenRodYellow; margin: 4px; border: 1px solid khaki"> (<a href="https://browser.ihtsdotools.org/">SNOMED CT</a>#11466000)</span></p><p><b>subject</b>: <a href="#Patient_patient-mother-jada-ann-quinn">See above (Patient/patient-mother-jada-ann-quinn: Patient - Mother (Jada Ann Quinn))</a></p><p><b>performed</b>: 2019-02-12 12:45:00-0700 --&gt; 2019-02-12 13:15:00-0700</p><p><b>reasonReference</b>: <a href="#Observation_observation-labor-trial-attempted-babyg-quinn">See above (Observation/observation-labor-trial-attempted-babyg-quinn: Labor trial attempted - true)</a></p></div>
        </text>
        <status value="completed"/>
        <code>
          <coding>
            <system value="http://snomed.info/sct"/>
            <code value="11466000"/>
            <display value="Cesarean section"/>
          </coding>
          <text value="Cesarean section"/>
        </code>
        <subject>
          <reference value="Patient/patient-mother-jada-ann-quinn"/>
          <display value="Patient - Mother (Jada Ann Quinn)"/>
        </subject>
        <performedPeriod>
          <start value="2019-02-12T12:45:00-07:00"/>
          <end value="2019-02-12T13:15:00-07:00"/>
        </performedPeriod>
        <reasonReference>
          <reference value="Observation/observation-labor-trial-attempted-babyg-quinn"/>
          <display value="Labor trial attempted - true"/>
        </reasonReference>
      </Procedure>
    </resource>
  </entry>
  <entry>
    <fullUrl value="http://www.example.org/fhir/Condition/condition-ruptured-uterus-jada-ann-quinn"/>
    <resource>
      <Condition>
        <id value="condition-ruptured-uterus-jada-ann-quinn"/>
        <meta>
          <profile value="http://hl7.org/fhir/us/bfdr/StructureDefinition/Condition-ruptured-uterus"/>
        </meta>
        <text>
          <status value="generated"/><div xmlns="http://www.w3.org/1999/xhtml"><p><b>Generated Narrative: Condition</b><a name="condition-ruptured-uterus-jada-ann-quinn"> </a></p><div style="display: inline-block; background-color: #d9e0e7; padding: 6px; margin: 4px; border: 1px solid #8da1b4; border-radius: 5px; line-height: 60%"><p style="margin-bottom: 0px">Resource Condition &quot;condition-ruptured-uterus-jada-ann-quinn&quot; </p><p style="margin-bottom: 0px">Profile: <a href="StructureDefinition-Condition-ruptured-uterus.html">Condition - Ruptured Uterus</a></p></div><p><b>clinicalStatus</b>: Active <span style="background: LightGoldenRodYellow; margin: 4px; border: 1px solid khaki"> (<a href="http://terminology.hl7.org/5.0.0/CodeSystem-condition-clinical.html">Condition Clinical Status Codes</a>#active)</span></p><p><b>category</b>: Problem List Item <span style="background: LightGoldenRodYellow; margin: 4px; border: 1px solid khaki"> (<a href="http://terminology.hl7.org/5.0.0/CodeSystem-condition-category.html">Condition Category Codes</a>#problem-list-item)</span>, Maternal morbidity [US Standard Certificate of Live Birth] <span style="background: LightGoldenRodYellow; margin: 4px; border: 1px solid khaki"> (<a href="https://loinc.org/">LOINC</a>#73781-7)</span></p><p><b>code</b>: Rupture of uterus (disorder) <span style="background: LightGoldenRodYellow; margin: 4px; border: 1px solid khaki"> (<a href="https://browser.ihtsdotools.org/">SNOMED CT</a>#34430009)</span></p><p><b>subject</b>: <a href="#Patient_patient-mother-jada-ann-quinn">See above (Patient/patient-mother-jada-ann-quinn: Patient - Mother (Jada Ann Quinn))</a></p></div>
        </text>
        <clinicalStatus>
          <coding>
            <system value="http://terminology.hl7.org/CodeSystem/condition-clinical"/>
            <code value="active"/>
            <display value="Active"/>
          </coding>
          <text value="Active"/>
        </clinicalStatus>
        <category>
          <coding>
            <system value="http://terminology.hl7.org/CodeSystem/condition-category"/>
            <code value="problem-list-item"/>
            <display value="Problem List Item"/>
          </coding>
        </category>
        <category>
          <coding>
            <system value="http://loinc.org"/>
            <code value="73781-7"/>
          </coding>
        </category>
        <code>
          <coding>
            <system value="http://snomed.info/sct"/>
            <code value="34430009"/>
            <display value="Rupture of uterus (disorder)"/>
          </coding>
          <text value="Rupture of uterus (disorder)"/>
        </code>
        <subject>
          <reference value="Patient/patient-mother-jada-ann-quinn"/>
          <display value="Patient - Mother (Jada Ann Quinn)"/>
        </subject>
      </Condition>
    </resource>
  </entry>
  <entry>
    <fullUrl value="http://www.example.org/fhir/Observation/observation-birth-weight-babyg-quinn"/>
    <resource>
      <Observation>
        <id value="observation-birth-weight-babyg-quinn"/>
        <meta>
          <profile value="http://hl7.org/fhir/us/bfdr/StructureDefinition/Observation-birth-weight"/>
        </meta>
        <text>
          <status value="generated"/><div xmlns="http://www.w3.org/1999/xhtml"><p><b>Generated Narrative: Observation</b><a name="observation-birth-weight-babyg-quinn"> </a></p><div style="display: inline-block; background-color: #d9e0e7; padding: 6px; margin: 4px; border: 1px solid #8da1b4; border-radius: 5px; line-height: 60%"><p style="margin-bottom: 0px">Resource Observation &quot;observation-birth-weight-babyg-quinn&quot; </p><p style="margin-bottom: 0px">Profile: <a href="StructureDefinition-Observation-birth-weight.html">Observation - Birth Weight</a></p></div><p><b>status</b>: final</p><p><b>category</b>: Vital Signs <span style="background: LightGoldenRodYellow; margin: 4px; border: 1px solid khaki"> (<a href="http://terminology.hl7.org/5.0.0/CodeSystem-observation-category.html">Observation Category Codes</a>#vital-signs)</span></p><p><b>code</b>: Birth weight Measured <span style="background: LightGoldenRodYellow; margin: 4px; border: 1px solid khaki"> (<a href="https://loinc.org/">LOINC</a>#8339-4)</span></p><p><b>subject</b>: <a href="#Patient_patient-child-babyg-quinn">See above (Patient/patient-child-babyg-quinn: BabyG Quinn)</a></p><p><b>effective</b>: 2019-12-02</p><p><b>performer</b>: <a href="#Practitioner_practitioner-vital-records-janet-seito">See above (Practitioner/practitioner-vital-records-janet-seito)</a></p><p><b>value</b>: 2500 g<span style="background: LightGoldenRodYellow"> (Details: UCUM code g = 'g')</span></p></div>
        </text>
        <status value="final"/>
        <category>
          <coding>
            <system value="http://terminology.hl7.org/CodeSystem/observation-category"/>
            <code value="vital-signs"/>
          </coding>
        </category>
        <code>
          <coding>
            <system value="http://loinc.org"/>
            <code value="8339-4"/>
            <display value="Birth weight Measured"/>
          </coding>
        </code>
        <subject>
          <reference value="Patient/patient-child-babyg-quinn"/>
          <display value="BabyG Quinn"/>
        </subject>
        <effectiveDateTime value="2019-12-02"/>
        <performer>
          <reference value="Practitioner/practitioner-vital-records-janet-seito"/>
        </performer>
        <valueQuantity>
          <value value="2500"/>
          <system value="http://unitsofmeasure.org"/>
          <code value="g"/>
        </valueQuantity>
      </Observation>
    </resource>
  </entry>
  <entry>
    <fullUrl value="http://www.example.org/fhir/Observation/observation-gestational-age-at-delivery-babyg-quinn"/>
    <resource>
      <Observation>
        <id value="observation-gestational-age-at-delivery-babyg-quinn"/>
        <meta>
          <profile value="http://hl7.org/fhir/us/bfdr/StructureDefinition/Observation-gestational-age-at-delivery"/>
        </meta>
        <text>
          <status value="generated"/><div xmlns="http://www.w3.org/1999/xhtml"><p><b>Generated Narrative: Observation</b><a name="observation-gestational-age-at-delivery-babyg-quinn"> </a></p><div style="display: inline-block; background-color: #d9e0e7; padding: 6px; margin: 4px; border: 1px solid #8da1b4; border-radius: 5px; line-height: 60%"><p style="margin-bottom: 0px">Resource Observation &quot;observation-gestational-age-at-delivery-babyg-quinn&quot; </p><p style="margin-bottom: 0px">Profile: <a href="StructureDefinition-Observation-gestational-age-at-delivery.html">Observation - Gestational Age at Delivery</a></p></div><p><b>status</b>: final</p><p><b>code</b>: Gestational age Estimated <span style="background: LightGoldenRodYellow; margin: 4px; border: 1px solid khaki"> (<a href="https://loinc.org/">LOINC</a>#11884-4)</span></p><p><b>subject</b>: <a href="#Patient_patient-child-babyg-quinn">See above (Patient/patient-child-babyg-quinn: BabyG Quinn)</a></p><p><b>effective</b>: 2019-12-02</p><p><b>performer</b>: <a href="#Practitioner_practitioner-vital-records-janet-seito">See above (Practitioner/practitioner-vital-records-janet-seito)</a></p><p><b>value</b>: 36 wk<span style="background: LightGoldenRodYellow"> (Details: UCUM code wk = 'wk')</span></p></div>
        </text>
        <status value="final"/>
        <code>
          <coding>
            <system value="http://loinc.org"/>
            <code value="11884-4"/>
            <display value="Gestational age Estimated"/>
          </coding>
        </code>
        <subject>
          <reference value="Patient/patient-child-babyg-quinn"/>
          <display value="BabyG Quinn"/>
        </subject>
        <effectiveDateTime value="2019-12-02"/>
        <performer>
          <reference value="Practitioner/practitioner-vital-records-janet-seito"/>
        </performer>
        <valueQuantity>
          <value value="36"/>
          <system value="http://unitsofmeasure.org"/>
          <code value="wk"/>
        </valueQuantity>
      </Observation>
    </resource>
  </entry>
  <entry>
    <fullUrl value="http://www.example.org/fhir/Observation/observation-apgar-score-babyg-quinn-1-min"/>
    <resource>
      <Observation>
        <id value="observation-apgar-score-babyg-quinn-1-min"/>
        <meta>
          <profile value="http://hl7.org/fhir/us/bfdr/StructureDefinition/Observation-apgar-score"/>
        </meta>
        <text>
          <status value="generated"/><div xmlns="http://www.w3.org/1999/xhtml"><p><b>Generated Narrative: Observation</b><a name="observation-apgar-score-babyg-quinn-1-min"> </a></p><div style="display: inline-block; background-color: #d9e0e7; padding: 6px; margin: 4px; border: 1px solid #8da1b4; border-radius: 5px; line-height: 60%"><p style="margin-bottom: 0px">Resource Observation &quot;observation-apgar-score-babyg-quinn-1-min&quot; </p><p style="margin-bottom: 0px">Profile: <a href="StructureDefinition-Observation-apgar-score.html">Observation - APGAR Score</a></p></div><p><b>status</b>: final</p><p><b>category</b>: Survey <span style="background: LightGoldenRodYellow; margin: 4px; border: 1px solid khaki"> (<a href="http://terminology.hl7.org/5.0.0/CodeSystem-observation-category.html">Observation Category Codes</a>#survey)</span></p><p><b>code</b>: 1 minute Apgar Score <span style="background: LightGoldenRodYellow; margin: 4px; border: 1px solid khaki"> (<a href="https://loinc.org/">LOINC</a>#9272-6)</span></p><p><b>subject</b>: <a href="#Patient_patient-child-babyg-quinn">See above (Patient/patient-child-babyg-quinn: BabyG Quinn)</a></p><p><b>effective</b>: 2019-12-02</p><p><b>performer</b>: <a href="#Practitioner_practitioner-vital-records-janet-seito">See above (Practitioner/practitioner-vital-records-janet-seito)</a></p><p><b>value</b>: 5</p></div>
        </text>
        <status value="final"/>
        <category>
          <coding>
            <system value="http://terminology.hl7.org/CodeSystem/observation-category"/>
            <code value="survey"/>
          </coding>
        </category>
        <code>
          <coding>
            <system value="http://loinc.org"/>
            <code value="9272-6"/>
            <display value="1 minute Apgar Score"/>
          </coding>
          <text value="1 minute Apgar Score"/>
        </code>
        <subject>
          <reference value="Patient/patient-child-babyg-quinn"/>
          <display value="BabyG Quinn"/>
        </subject>
        <effectiveDateTime value="2019-12-02"/>
        <performer>
          <reference value="Practitioner/practitioner-vital-records-janet-seito"/>
        </performer>
        <valueInteger value="5"/>
      </Observation>
    </resource>
  </entry>
  <entry>
    <fullUrl value="http://www.example.org/fhir/Observation/observation-apgar-score-babyg-quinn-5-min"/>
    <resource>
      <Observation>
        <id value="observation-apgar-score-babyg-quinn-5-min"/>
        <meta>
          <profile value="http://hl7.org/fhir/us/bfdr/StructureDefinition/Observation-apgar-score"/>
        </meta>
        <text>
          <status value="generated"/><div xmlns="http://www.w3.org/1999/xhtml"><p><b>Generated Narrative: Observation</b><a name="observation-apgar-score-babyg-quinn-5-min"> </a></p><div style="display: inline-block; background-color: #d9e0e7; padding: 6px; margin: 4px; border: 1px solid #8da1b4; border-radius: 5px; line-height: 60%"><p style="margin-bottom: 0px">Resource Observation &quot;observation-apgar-score-babyg-quinn-5-min&quot; </p><p style="margin-bottom: 0px">Profile: <a href="StructureDefinition-Observation-apgar-score.html">Observation - APGAR Score</a></p></div><p><b>status</b>: final</p><p><b>category</b>: Survey <span style="background: LightGoldenRodYellow; margin: 4px; border: 1px solid khaki"> (<a href="http://terminology.hl7.org/5.0.0/CodeSystem-observation-category.html">Observation Category Codes</a>#survey)</span></p><p><b>code</b>: 5 minute Apgar Score <span style="background: LightGoldenRodYellow; margin: 4px; border: 1px solid khaki"> (<a href="https://loinc.org/">LOINC</a>#9274-2)</span></p><p><b>subject</b>: <a href="#Patient_patient-child-babyg-quinn">See above (Patient/patient-child-babyg-quinn: BabyG Quinn)</a></p><p><b>effective</b>: 2019-12-02</p><p><b>performer</b>: <a href="#Practitioner_practitioner-vital-records-janet-seito">See above (Practitioner/practitioner-vital-records-janet-seito)</a></p><p><b>value</b>: 7</p></div>
        </text>
        <status value="final"/>
        <category>
          <coding>
            <system value="http://terminology.hl7.org/CodeSystem/observation-category"/>
            <code value="survey"/>
          </coding>
        </category>
        <code>
          <coding>
            <system value="http://loinc.org"/>
            <code value="9274-2"/>
            <display value="5 minute Apgar Score"/>
          </coding>
          <text value="5 minute Apgar Score"/>
        </code>
        <subject>
          <reference value="Patient/patient-child-babyg-quinn"/>
          <display value="BabyG Quinn"/>
        </subject>
        <effectiveDateTime value="2019-12-02"/>
        <performer>
          <reference value="Practitioner/practitioner-vital-records-janet-seito"/>
        </performer>
        <valueInteger value="7"/>
      </Observation>
    </resource>
  </entry>
  <entry>
    <fullUrl value="http://www.example.org/fhir/Observation/observation-number-live-births-this-delivery-jada-ann-quinn"/>
    <resource>
      <Observation>
        <id value="observation-number-live-births-this-delivery-jada-ann-quinn"/>
        <meta>
          <profile value="http://hl7.org/fhir/us/bfdr/StructureDefinition/Observation-number-live-births-this-delivery"/>
        </meta>
        <text>
          <status value="generated"/><div xmlns="http://www.w3.org/1999/xhtml"><p><b>Generated Narrative: Observation</b><a name="observation-number-live-births-this-delivery-jada-ann-quinn"> </a></p><div style="display: inline-block; background-color: #d9e0e7; padding: 6px; margin: 4px; border: 1px solid #8da1b4; border-radius: 5px; line-height: 60%"><p style="margin-bottom: 0px">Resource Observation &quot;observation-number-live-births-this-delivery-jada-ann-quinn&quot; </p><p style="margin-bottom: 0px">Profile: <a href="StructureDefinition-Observation-number-live-births-this-delivery.html">Observation - Number of Live Births This Delivery</a></p></div><p><b>status</b>: final</p><p><b>code</b>: Number of infants in this delivery delivered alive <span style="background: LightGoldenRodYellow; margin: 4px; border: 1px solid khaki"> (<a href="https://loinc.org/">LOINC</a>#73773-4)</span></p><p><b>subject</b>: <a href="#Patient_patient-mother-jada-ann-quinn">See above (Patient/patient-mother-jada-ann-quinn: Patient - Mother (Jada Ann Quinn))</a></p><p><b>focus</b>: <a href="#Patient_patient-child-babyg-quinn">See above (Patient/patient-child-babyg-quinn: BabyG Quinn)</a></p><p><b>effective</b>: 2019-12-02</p><p><b>performer</b>: <a href="#Practitioner_practitioner-vital-records-janet-seito">See above (Practitioner/practitioner-vital-records-janet-seito)</a></p><p><b>value</b>: 2</p></div>
        </text>
        <status value="final"/>
        <code>
          <coding>
            <system value="http://loinc.org"/>
            <code value="73773-4"/>
            <display value="Number of infants in this delivery delivered alive"/>
          </coding>
        </code>
        <subject>
          <reference value="Patient/patient-mother-jada-ann-quinn"/>
          <display value="Patient - Mother (Jada Ann Quinn)"/>
        </subject>
        <focus>
          <reference value="Patient/patient-child-babyg-quinn"/>
          <display value="BabyG Quinn"/>
        </focus>
        <effectiveDateTime value="2019-12-02"/>
        <performer>
          <reference value="Practitioner/practitioner-vital-records-janet-seito"/>
        </performer>
        <valueInteger value="2"/>
      </Observation>
    </resource>
  </entry>
  <entry>
    <fullUrl value="http://www.example.org/fhir/Condition/condition-congenital-anomaly-of-newborn-babyg-quinn"/>
    <resource>
      <Condition>
        <id value="condition-congenital-anomaly-of-newborn-babyg-quinn"/>
        <meta>
          <profile value="http://hl7.org/fhir/us/bfdr/StructureDefinition/Condition-congenital-anomaly-of-newborn"/>
        </meta>
        <text>
          <status value="generated"/><div xmlns="http://www.w3.org/1999/xhtml"><p><b>Generated Narrative: Condition</b><a name="condition-congenital-anomaly-of-newborn-babyg-quinn"> </a></p><div style="display: inline-block; background-color: #d9e0e7; padding: 6px; margin: 4px; border: 1px solid #8da1b4; border-radius: 5px; line-height: 60%"><p style="margin-bottom: 0px">Resource Condition &quot;condition-congenital-anomaly-of-newborn-babyg-quinn&quot; </p><p style="margin-bottom: 0px">Profile: <a href="StructureDefinition-Condition-congenital-anomaly-of-newborn.html">Condition - Congenital Anomaly of Newborn</a></p></div><p><b>clinicalStatus</b>: Active <span style="background: LightGoldenRodYellow; margin: 4px; border: 1px solid khaki"> (<a href="http://terminology.hl7.org/5.0.0/CodeSystem-condition-clinical.html">Condition Clinical Status Codes</a>#active)</span></p><p><b>category</b>: Problem List Item <span style="background: LightGoldenRodYellow; margin: 4px; border: 1px solid khaki"> (<a href="http://terminology.hl7.org/5.0.0/CodeSystem-condition-category.html">Condition Category Codes</a>#problem-list-item)</span>, Congenital anomalies of the newborn [US Standard Certificate of Live Birth] <span style="background: LightGoldenRodYellow; margin: 4px; border: 1px solid khaki"> (<a href="https://loinc.org/">LOINC</a>#73780-9)</span></p><p><b>code</b>: Cyanotic congenital heart disease (disorder) <span style="background: LightGoldenRodYellow; margin: 4px; border: 1px solid khaki"> (<a href="https://browser.ihtsdotools.org/">SNOMED CT</a>#12770006)</span></p><p><b>subject</b>: <a href="#Patient_patient-child-babyg-quinn">See above (Patient/patient-child-babyg-quinn: BabyG Quinn)</a></p></div>
        </text>
        <clinicalStatus>
          <coding>
            <system value="http://terminology.hl7.org/CodeSystem/condition-clinical"/>
            <code value="active"/>
            <display value="Active"/>
          </coding>
          <text value="Active"/>
        </clinicalStatus>
        <category>
          <coding>
            <system value="http://terminology.hl7.org/CodeSystem/condition-category"/>
            <code value="problem-list-item"/>
            <display value="Problem List Item"/>
          </coding>
        </category>
        <category>
          <coding>
            <system value="http://loinc.org"/>
            <code value="73780-9"/>
            <display value="Congenital anomalies of the newborn [US Standard Certificate of Live Birth]"/>
          </coding>
        </category>
        <code>
          <coding>
            <system value="http://snomed.info/sct"/>
            <code value="12770006"/>
            <display value="Cyanotic congenital heart disease (disorder)"/>
          </coding>
          <text value="Cyanotic congenital heart disease (disorder)"/>
        </code>
        <subject>
          <reference value="Patient/patient-child-babyg-quinn"/>
          <display value="BabyG Quinn"/>
        </subject>
      </Condition>
    </resource>
  </entry>
  <entry>
    <fullUrl value="http://www.example.org/fhir/Condition/condition-congenital-anomaly-of-newborn-babyg-quinn-2"/>
    <resource>
      <Condition>
        <id value="condition-congenital-anomaly-of-newborn-babyg-quinn-2"/>
        <meta>
          <profile value="http://hl7.org/fhir/us/bfdr/StructureDefinition/Condition-congenital-anomaly-of-newborn"/>
        </meta>
        <text>
          <status value="generated"/><div xmlns="http://www.w3.org/1999/xhtml"><p><b>Generated Narrative: Condition</b><a name="condition-congenital-anomaly-of-newborn-babyg-quinn-2"> </a></p><div style="display: inline-block; background-color: #d9e0e7; padding: 6px; margin: 4px; border: 1px solid #8da1b4; border-radius: 5px; line-height: 60%"><p style="margin-bottom: 0px">Resource Condition &quot;condition-congenital-anomaly-of-newborn-babyg-quinn-2&quot; </p><p style="margin-bottom: 0px">Profile: <a href="StructureDefinition-Condition-congenital-anomaly-of-newborn.html">Condition - Congenital Anomaly of Newborn</a></p></div><p><b>clinicalStatus</b>: Active <span style="background: LightGoldenRodYellow; margin: 4px; border: 1px solid khaki"> (<a href="http://terminology.hl7.org/5.0.0/CodeSystem-condition-clinical.html">Condition Clinical Status Codes</a>#active)</span></p><p><b>category</b>: Problem List Item <span style="background: LightGoldenRodYellow; margin: 4px; border: 1px solid khaki"> (<a href="http://terminology.hl7.org/5.0.0/CodeSystem-condition-category.html">Condition Category Codes</a>#problem-list-item)</span>, Congenital anomalies of the newborn [US Standard Certificate of Live Birth] <span style="background: LightGoldenRodYellow; margin: 4px; border: 1px solid khaki"> (<a href="https://loinc.org/">LOINC</a>#73780-9)</span></p><p><b>code</b>: Anomaly of chromosome pair 21 (disorder) <span style="background: LightGoldenRodYellow; margin: 4px; border: 1px solid khaki"> (<a href="https://browser.ihtsdotools.org/">SNOMED CT</a>#70156005)</span></p><p><b>subject</b>: <a href="#Patient_patient-child-babyg-quinn">See above (Patient/patient-child-babyg-quinn: Patient - Child (Baby G Quinn))</a></p><h3>Evidences</h3><table class="grid"><tr><td style="display: none">-</td><td><b>Code</b></td></tr><tr><td style="display: none">*</td><td>Karyotype determination pending <span style="background: LightGoldenRodYellow; margin: 4px; border: 1px solid khaki"> (<a href="https://browser.ihtsdotools.org/">SNOMED CT</a>#312948004 &quot;Karyotype determination&quot;)</span></td></tr></table></div>
        </text>
        <clinicalStatus>
          <coding>
            <system value="http://terminology.hl7.org/CodeSystem/condition-clinical"/>
            <code value="active"/>
            <display value="Active"/>
          </coding>
          <text value="Active"/>
        </clinicalStatus>
        <category>
          <coding>
            <system value="http://terminology.hl7.org/CodeSystem/condition-category"/>
            <code value="problem-list-item"/>
            <display value="Problem List Item"/>
          </coding>
        </category>
        <category>
          <coding>
            <system value="http://loinc.org"/>
            <code value="73780-9"/>
            <display value="Congenital anomalies of the newborn [US Standard Certificate of Live Birth]"/>
          </coding>
        </category>
        <code>
          <coding>
            <system value="http://snomed.info/sct"/>
            <code value="70156005"/>
            <display value="Anomaly of chromosome pair 21 (disorder)"/>
          </coding>
          <text value="Anomaly of chromosome pair 21 (disorder)"/>
        </code>
        <subject>
          <reference value="Patient/patient-child-babyg-quinn"/>
          <display value="Patient - Child (Baby G Quinn)"/>
        </subject>
        <evidence>
          <code>
            <coding>
              <system value="http://snomed.info/sct"/>
              <code value="312948004"/>
              <display value="Karyotype determination"/>
            </coding>
            <text value="Karyotype determination pending"/>
          </code>
        </evidence>
      </Condition>
    </resource>
  </entry>
  <entry>
    <fullUrl value="http://www.example.org/fhir/Observation/observation-infant-living-babyg-quinn"/>
    <resource>
      <Observation>
        <id value="observation-infant-living-babyg-quinn"/>
        <meta>
          <profile value="http://hl7.org/fhir/us/bfdr/StructureDefinition/Observation-infant-living"/>
        </meta>
        <text>
          <status value="generated"/><div xmlns="http://www.w3.org/1999/xhtml"><p><b>Generated Narrative: Observation</b><a name="observation-infant-living-babyg-quinn"> </a></p><div style="display: inline-block; background-color: #d9e0e7; padding: 6px; margin: 4px; border: 1px solid #8da1b4; border-radius: 5px; line-height: 60%"><p style="margin-bottom: 0px">Resource Observation &quot;observation-infant-living-babyg-quinn&quot; </p><p style="margin-bottom: 0px">Profile: <a href="StructureDefinition-Observation-infant-living.html">Observation - Infant Living</a></p></div><p><b>status</b>: final</p><p><b>code</b>: Infant living at time of report [US Standard Certificate of Live Birth] <span style="background: LightGoldenRodYellow; margin: 4px; border: 1px solid khaki"> (<a href="https://loinc.org/">LOINC</a>#73757-7)</span></p><p><b>subject</b>: <a href="#Patient_patient-child-babyg-quinn">See above (Patient/patient-child-babyg-quinn: BabyG Quinn)</a></p><p><b>effective</b>: 2019-12-02</p><p><b>performer</b>: <a href="#Practitioner_practitioner-vital-records-janet-seito">See above (Practitioner/practitioner-vital-records-janet-seito)</a></p><p><b>value</b>: true</p></div>
        </text>
        <status value="final"/>
        <code>
          <coding>
            <system value="http://loinc.org"/>
            <code value="73757-7"/>
            <display value="Infant living at time of report [US Standard Certificate of Live Birth]"/>
          </coding>
        </code>
        <subject>
          <reference value="Patient/patient-child-babyg-quinn"/>
          <display value="BabyG Quinn"/>
        </subject>
        <effectiveDateTime value="2019-12-02"/>
        <performer>
          <reference value="Practitioner/practitioner-vital-records-janet-seito"/>
        </performer>
        <valueBoolean value="true"/>
      </Observation>
    </resource>
  </entry>
  <entry>
    <fullUrl value="http://www.example.org/fhir/Observation/observation-infant-breastfed-at-discharge-babyg-quinn"/>
    <resource>
      <Observation>
        <id value="observation-infant-breastfed-at-discharge-babyg-quinn"/>
        <meta>
          <profile value="http://hl7.org/fhir/us/bfdr/StructureDefinition/Observation-infant-breastfed-at-discharge"/>
        </meta>
        <text>
          <status value="generated"/><div xmlns="http://www.w3.org/1999/xhtml"><p><b>Generated Narrative: Observation</b><a name="observation-infant-breastfed-at-discharge-babyg-quinn"> </a></p><div style="display: inline-block; background-color: #d9e0e7; padding: 6px; margin: 4px; border: 1px solid #8da1b4; border-radius: 5px; line-height: 60%"><p style="margin-bottom: 0px">Resource Observation &quot;observation-infant-breastfed-at-discharge-babyg-quinn&quot; </p><p style="margin-bottom: 0px">Profile: <a href="StructureDefinition-Observation-infant-breastfed-at-discharge.html">Observation - Infant Breastfed at Discharge</a></p></div><p><b>status</b>: final</p><p><b>code</b>: Infant is being breastfed at discharge [US Standard Certificate of Live Birth] <span style="background: LightGoldenRodYellow; margin: 4px; border: 1px solid khaki"> (<a href="https://loinc.org/">LOINC</a>#73756-9)</span></p><p><b>subject</b>: <a href="#Patient_patient-child-babyg-quinn">See above (Patient/patient-child-babyg-quinn: BabyG Quinn)</a></p><p><b>effective</b>: 2019-12-02</p><p><b>performer</b>: <a href="#Practitioner_practitioner-vital-records-janet-seito">See above (Practitioner/practitioner-vital-records-janet-seito)</a></p><p><b>value</b>: true</p></div>
        </text>
        <status value="final"/>
        <code>
          <coding>
            <system value="http://loinc.org"/>
            <code value="73756-9"/>
          </coding>
        </code>
        <subject>
          <reference value="Patient/patient-child-babyg-quinn"/>
          <display value="BabyG Quinn"/>
        </subject>
        <effectiveDateTime value="2019-12-02"/>
        <performer>
          <reference value="Practitioner/practitioner-vital-records-janet-seito"/>
        </performer>
        <valueBoolean value="true"/>
      </Observation>
    </resource>
  </entry>
  <entry>
    <fullUrl value="http://www.example.org/fhir/Observation/observation-mother-married-during-pregnancy-jada-ann-quinn"/>
    <resource>
      <Observation>
        <id value="observation-mother-married-during-pregnancy-jada-ann-quinn"/>
        <meta>
          <profile value="http://hl7.org/fhir/us/bfdr/StructureDefinition/Observation-mother-married-during-pregnancy"/>
        </meta>
        <text>
          <status value="generated"/><div xmlns="http://www.w3.org/1999/xhtml"><p><b>Generated Narrative: Observation</b><a name="observation-mother-married-during-pregnancy-jada-ann-quinn"> </a></p><div style="display: inline-block; background-color: #d9e0e7; padding: 6px; margin: 4px; border: 1px solid #8da1b4; border-radius: 5px; line-height: 60%"><p style="margin-bottom: 0px">Resource Observation &quot;observation-mother-married-during-pregnancy-jada-ann-quinn&quot; </p><p style="margin-bottom: 0px">Profile: <a href="StructureDefinition-Observation-mother-married-during-pregnancy.html">Observation - Mother Married During Pregnancy</a></p></div><p><b>status</b>: final</p><p><b>code</b>: Mother was married at any time during pregnancy <span style="background: LightGoldenRodYellow; margin: 4px; border: 1px solid khaki"> (<a href="https://loinc.org/">LOINC</a>#87301-8)</span></p><p><b>subject</b>: <a href="#Patient_patient-mother-jada-ann-quinn">See above (Patient/patient-mother-jada-ann-quinn: Patient - Mother (Jada Ann Quinn))</a></p><p><b>focus</b>: <a href="#Patient_patient-child-babyg-quinn">See above (Patient/patient-child-babyg-quinn: BabyG Quinn)</a></p><p><b>effective</b>: 2019-12-02</p><p><b>value</b>: Yes <span style="background: LightGoldenRodYellow; margin: 4px; border: 1px solid khaki"> (<a href="http://hl7.org/fhir/R4/v2/0136/index.html">v2 Y/N Indicator</a>#Y)</span></p></div>
        </text>
        <status value="final"/>
        <code>
          <coding>
            <system value="http://loinc.org"/>
            <code value="87301-8"/>
          </coding>
        </code>
        <subject>
          <reference value="Patient/patient-mother-jada-ann-quinn"/>
          <display value="Patient - Mother (Jada Ann Quinn)"/>
        </subject>
        <focus>
          <reference value="Patient/patient-child-babyg-quinn"/>
          <display value="BabyG Quinn"/>
        </focus>
        <effectiveDateTime value="2019-12-02"/>
        <valueCodeableConcept>
          <coding>
            <system value="http://terminology.hl7.org/CodeSystem/v2-0136"/>
            <code value="Y"/>
            <display value="Yes"/>
          </coding>
        </valueCodeableConcept>
      </Observation>
    </resource>
  </entry>
  <entry>
    <fullUrl value="http://www.example.org/fhir/Observation/observation-parent-education-level-jada-ann-quinn"/>
    <resource>
      <Observation>
        <id value="observation-parent-education-level-jada-ann-quinn"/>
        <meta>
          <profile value="http://hl7.org/fhir/us/vr-common-library/StructureDefinition/Observation-education-level-vr"/>
        </meta>
        <text>
          <status value="generated"/><div xmlns="http://www.w3.org/1999/xhtml"><p><b>Generated Narrative: Observation</b><a name="observation-parent-education-level-jada-ann-quinn"> </a></p><div style="display: inline-block; background-color: #d9e0e7; padding: 6px; margin: 4px; border: 1px solid #8da1b4; border-radius: 5px; line-height: 60%"><p style="margin-bottom: 0px">Resource Observation &quot;observation-parent-education-level-jada-ann-quinn&quot; </p><p style="margin-bottom: 0px">Profile: <a href="https://build.fhir.org/ig/HL7/vr-common-library//StructureDefinition-Observation-education-level-vr.html">Observation - Education Level Vital Records</a></p></div><p><b>status</b>: final</p><p><b>code</b>: Highest level of education Mother <span style="background: LightGoldenRodYellow; margin: 4px; border: 1px solid khaki"> (<a href="https://loinc.org/">LOINC</a>#57712-2)</span></p><p><b>subject</b>: <a href="#Patient_patient-child-babyg-quinn">See above (Patient/patient-child-babyg-quinn)</a></p><p><b>focus</b>: <a href="#Patient_patient-mother-jada-ann-quinn">See above (Patient/patient-mother-jada-ann-quinn)</a></p><p><b>effective</b>: 2019-12-02</p><p><b>performer</b>: <a href="#Patient_patient-mother-jada-ann-quinn">See above (Patient/patient-mother-jada-ann-quinn)</a></p><p><b>value</b>: Doctoral or post graduate education <span style="background: LightGoldenRodYellow; margin: 4px; border: 1px solid khaki"> (<a href="http://terminology.hl7.org/5.0.0/CodeSystem-v3-EducationLevel.html">Education Level</a>#POSTG)</span></p></div>
        </text>
        <status value="final"/>
        <code>
          <coding>
            <system value="http://loinc.org"/>
            <code value="57712-2"/>
            <display value="Highest level of education Mother"/>
          </coding>
        </code>
        <subject>
          <reference value="Patient/patient-child-babyg-quinn"/>
        </subject>
        <focus>
          <reference value="Patient/patient-mother-jada-ann-quinn"/>
        </focus>
        <effectiveDateTime value="2019-12-02"/>
        <performer>
          <reference value="Patient/patient-mother-jada-ann-quinn"/>
        </performer>
        <valueCodeableConcept>
          <coding>
            <system value="http://terminology.hl7.org/CodeSystem/v3-EducationLevel"/>
            <code value="POSTG"/>
            <display value="Doctoral or post graduate education"/>
          </coding>
          <text value="Doctoral or post graduate education"/>
        </valueCodeableConcept>
      </Observation>
    </resource>
  </entry>
  <entry>
    <fullUrl value="http://www.example.org/fhir/Observation/observation-usual-work-jada-ann-quinn"/>
    <resource>
      <Observation>
        <id value="observation-usual-work-jada-ann-quinn"/>
        <meta>
          <profile value="http://hl7.org/fhir/us/vr-common-library/StructureDefinition/Observation-usual-work-vr"/>
        </meta>
        <text>
          <status value="extensions"/><div xmlns="http://www.w3.org/1999/xhtml"><p><b>Generated Narrative: Observation</b><a name="observation-usual-work-jada-ann-quinn"> </a></p><div style="display: inline-block; background-color: #d9e0e7; padding: 6px; margin: 4px; border: 1px solid #8da1b4; border-radius: 5px; line-height: 60%"><p style="margin-bottom: 0px">Resource Observation &quot;observation-usual-work-jada-ann-quinn&quot; </p><p style="margin-bottom: 0px">Profile: <a href="https://build.fhir.org/ig/HL7/vr-common-library//StructureDefinition-Observation-usual-work-vr.html">Observation - Usual Work</a></p></div><p><b>Role Vital Records</b>: mother <span style="background: LightGoldenRodYellow; margin: 4px; border: 1px solid khaki"> (<a href="http://terminology.hl7.org/5.0.0/CodeSystem-v3-RoleCode.html">RoleCode</a>#MTH)</span></p><p><b>status</b>: final</p><p><b>code</b>: History of Usual occupation <span style="background: LightGoldenRodYellow; margin: 4px; border: 1px solid khaki"> (<a href="https://loinc.org/">LOINC</a>#21843-8)</span></p><p><b>subject</b>: <a href="#Patient_patient-child-babyg-quinn">See above (Patient/patient-child-babyg-quinn)</a></p><p><b>focus</b>: <span>: Jada Ann Quinn - Mother</span></p><p><b>value</b>: Carpenter <span style="background: LightGoldenRodYellow; margin: 4px; border: 1px solid khaki"> ()</span></p><h3>Components</h3><table class="grid"><tr><td style="display: none">-</td><td><b>Code</b></td><td><b>Value[x]</b></td></tr><tr><td style="display: none">*</td><td>History of Usual industry <span style="background: LightGoldenRodYellow; margin: 4px; border: 1px solid khaki"> (<a href="https://loinc.org/">LOINC</a>#21844-6)</span></td><td>Construction <span style="background: LightGoldenRodYellow; margin: 4px; border: 1px solid khaki"> ()</span></td></tr></table></div>
        </text>
        <extension url="http://hl7.org/fhir/us/vr-common-library/StructureDefinition/Extension-role-vr">
          <valueCodeableConcept>
            <coding>
              <system value="http://terminology.hl7.org/CodeSystem/v3-RoleCode"/>
              <code value="MTH"/>
              <display value="mother"/>
            </coding>
          </valueCodeableConcept>
        </extension>
        <status value="final"/>
        <code>
          <coding>
            <system value="http://loinc.org"/>
            <code value="21843-8"/>
          </coding>
        </code>
        <subject>
          <reference value="Patient/patient-child-babyg-quinn"/>
        </subject>
        <focus>
          <display value="Jada Ann Quinn - Mother"/>
        </focus>
        <valueCodeableConcept>
          <text value="Carpenter"/>
        </valueCodeableConcept>
        <component>
          <code>
            <coding>
              <system value="http://loinc.org"/>
              <code value="21844-6"/>
            </coding>
          </code>
          <valueCodeableConcept>
            <text value="Construction"/>
          </valueCodeableConcept>
        </component>
      </Observation>
    </resource>
  </entry>
  <entry>
    <fullUrl value="http://www.example.org/fhir/Observation/observation-input-race-and-ethnicity-jada-ann-quinn"/>
    <resource>
      <Observation>
        <id value="observation-input-race-and-ethnicity-jada-ann-quinn"/>
        <meta>
          <profile value="http://hl7.org/fhir/us/vr-common-library/StructureDefinition/input-race-and-ethnicity-vr"/>
        </meta>
        <text>
          <status value="generated"/><div xmlns="http://www.w3.org/1999/xhtml"><p><b>Generated Narrative: Observation</b><a name="observation-input-race-and-ethnicity-jada-ann-quinn"> </a></p><div style="display: inline-block; background-color: #d9e0e7; padding: 6px; margin: 4px; border: 1px solid #8da1b4; border-radius: 5px; line-height: 60%"><p style="margin-bottom: 0px">Resource Observation &quot;observation-input-race-and-ethnicity-jada-ann-quinn&quot; </p><p style="margin-bottom: 0px">Profile: <a href="https://build.fhir.org/ig/HL7/vr-common-library//StructureDefinition-input-race-and-ethnicity-vr.html">Observation - Input Race and Ethnicity Vital Records</a></p></div><p><b>status</b>: final</p><p><b>code</b>: Mother Input Race and Ethnicity <span style="background: LightGoldenRodYellow; margin: 4px; border: 1px solid khaki"> (<a href="https://build.fhir.org/ig/HL7/vr-common-library//CodeSystem-CodeSystem-local-observation-codes-vr.html">Local Observation Codes Vital Records</a>#inputraceandethnicityMother)</span></p><p><b>subject</b>: <a href="#Patient_patient-mother-jada-ann-quinn">See above (Patient/patient-mother-jada-ann-quinn: Patient - Mother (Jada Ann Quinn))</a></p><blockquote><p><b>component</b></p><p><b>code</b>: White <span style="background: LightGoldenRodYellow; margin: 4px; border: 1px solid khaki"> (<a href="https://build.fhir.org/ig/HL7/vr-common-library//CodeSystem-codesystem-vr-component.html">Local Component Codes</a>#White)</span></p><p><b>value</b>: true</p></blockquote><blockquote><p><b>component</b></p><p><b>code</b>: Black Or African American <span style="background: LightGoldenRodYellow; margin: 4px; border: 1px solid khaki"> (<a href="https://build.fhir.org/ig/HL7/vr-common-library//CodeSystem-codesystem-vr-component.html">Local Component Codes</a>#BlackOrAfricanAmerican)</span></p><p><b>value</b>: false</p></blockquote><blockquote><p><b>component</b></p><p><b>code</b>: American Indian Or Alaska Native <span style="background: LightGoldenRodYellow; margin: 4px; border: 1px solid khaki"> (<a href="https://build.fhir.org/ig/HL7/vr-common-library//CodeSystem-codesystem-vr-component.html">Local Component Codes</a>#AmericanIndianOrAlaskanNative)</span></p><p><b>value</b>: true</p></blockquote><blockquote><p><b>component</b></p><p><b>code</b>: Asian Indian <span style="background: LightGoldenRodYellow; margin: 4px; border: 1px solid khaki"> (<a href="https://build.fhir.org/ig/HL7/vr-common-library//CodeSystem-codesystem-vr-component.html">Local Component Codes</a>#AsianIndian)</span></p><p><b>value</b>: false</p></blockquote><blockquote><p><b>component</b></p><p><b>code</b>: Chinese <span style="background: LightGoldenRodYellow; margin: 4px; border: 1px solid khaki"> (<a href="https://build.fhir.org/ig/HL7/vr-common-library//CodeSystem-codesystem-vr-component.html">Local Component Codes</a>#Chinese)</span></p><p><b>value</b>: false</p></blockquote><blockquote><p><b>component</b></p><p><b>code</b>: Filipino <span style="background: LightGoldenRodYellow; margin: 4px; border: 1px solid khaki"> (<a href="https://build.fhir.org/ig/HL7/vr-common-library//CodeSystem-codesystem-vr-component.html">Local Component Codes</a>#Filipino)</span></p><p><b>value</b>: false</p></blockquote><blockquote><p><b>component</b></p><p><b>code</b>: Japanese <span style="background: LightGoldenRodYellow; margin: 4px; border: 1px solid khaki"> (<a href="https://build.fhir.org/ig/HL7/vr-common-library//CodeSystem-codesystem-vr-component.html">Local Component Codes</a>#Japanese)</span></p><p><b>value</b>: false</p></blockquote><blockquote><p><b>component</b></p><p><b>code</b>: Korean <span style="background: LightGoldenRodYellow; margin: 4px; border: 1px solid khaki"> (<a href="https://build.fhir.org/ig/HL7/vr-common-library//CodeSystem-codesystem-vr-component.html">Local Component Codes</a>#Korean)</span></p><p><b>value</b>: false</p></blockquote><blockquote><p><b>component</b></p><p><b>code</b>: Vietnamese <span style="background: LightGoldenRodYellow; margin: 4px; border: 1px solid khaki"> (<a href="https://build.fhir.org/ig/HL7/vr-common-library//CodeSystem-codesystem-vr-component.html">Local Component Codes</a>#Vietnamese)</span></p><p><b>value</b>: false</p></blockquote><blockquote><p><b>component</b></p><p><b>code</b>: Other Asian <span style="background: LightGoldenRodYellow; margin: 4px; border: 1px solid khaki"> (<a href="https://build.fhir.org/ig/HL7/vr-common-library//CodeSystem-codesystem-vr-component.html">Local Component Codes</a>#OtherAsian)</span></p><p><b>value</b>: true</p></blockquote><blockquote><p><b>component</b></p><p><b>code</b>: Native Hawaiian <span style="background: LightGoldenRodYellow; margin: 4px; border: 1px solid khaki"> (<a href="https://build.fhir.org/ig/HL7/vr-common-library//CodeSystem-codesystem-vr-component.html">Local Component Codes</a>#NativeHawaiian)</span></p><p><b>value</b>: false</p></blockquote><blockquote><p><b>component</b></p><p><b>code</b>: Guamanian Or Chamorro <span style="background: LightGoldenRodYellow; margin: 4px; border: 1px solid khaki"> (<a href="https://build.fhir.org/ig/HL7/vr-common-library//CodeSystem-codesystem-vr-component.html">Local Component Codes</a>#GuamanianOrChamorro)</span></p><p><b>value</b>: false</p></blockquote><blockquote><p><b>component</b></p><p><b>code</b>: Samoan <span style="background: LightGoldenRodYellow; margin: 4px; border: 1px solid khaki"> (<a href="https://build.fhir.org/ig/HL7/vr-common-library//CodeSystem-codesystem-vr-component.html">Local Component Codes</a>#Samoan)</span></p><p><b>value</b>: false</p></blockquote><blockquote><p><b>component</b></p><p><b>code</b>: Other Pacific Islander <span style="background: LightGoldenRodYellow; margin: 4px; border: 1px solid khaki"> (<a href="https://build.fhir.org/ig/HL7/vr-common-library//CodeSystem-codesystem-vr-component.html">Local Component Codes</a>#OtherPacificIslander)</span></p><p><b>value</b>: false</p></blockquote><blockquote><p><b>component</b></p><p><b>code</b>: Other Race <span style="background: LightGoldenRodYellow; margin: 4px; border: 1px solid khaki"> (<a href="https://build.fhir.org/ig/HL7/vr-common-library//CodeSystem-codesystem-vr-component.html">Local Component Codes</a>#OtherRace)</span></p><p><b>value</b>: false</p></blockquote><blockquote><p><b>component</b></p><p><b>code</b>: Hispanic Mexican <span style="background: LightGoldenRodYellow; margin: 4px; border: 1px solid khaki"> (<a href="https://build.fhir.org/ig/HL7/vr-common-library//CodeSystem-codesystem-vr-component.html">Local Component Codes</a>#HispanicMexican)</span></p><p><b>value</b>: No <span style="background: LightGoldenRodYellow; margin: 4px; border: 1px solid khaki"> (<a href="http://hl7.org/fhir/R4/v2/0136/index.html">v2 Y/N Indicator</a>#N)</span></p></blockquote><blockquote><p><b>component</b></p><p><b>code</b>: Hispanic Cuban <span style="background: LightGoldenRodYellow; margin: 4px; border: 1px solid khaki"> (<a href="https://build.fhir.org/ig/HL7/vr-common-library//CodeSystem-codesystem-vr-component.html">Local Component Codes</a>#HispanicCuban)</span></p><p><b>value</b>: No <span style="background: LightGoldenRodYellow; margin: 4px; border: 1px solid khaki"> (<a href="http://hl7.org/fhir/R4/v2/0136/index.html">v2 Y/N Indicator</a>#N)</span></p></blockquote><blockquote><p><b>component</b></p><p><b>code</b>: Hispanic Puerto Rican <span style="background: LightGoldenRodYellow; margin: 4px; border: 1px solid khaki"> (<a href="https://build.fhir.org/ig/HL7/vr-common-library//CodeSystem-codesystem-vr-component.html">Local Component Codes</a>#HispanicPuertoRican)</span></p><p><b>value</b>: No <span style="background: LightGoldenRodYellow; margin: 4px; border: 1px solid khaki"> (<a href="http://hl7.org/fhir/R4/v2/0136/index.html">v2 Y/N Indicator</a>#N)</span></p></blockquote><blockquote><p><b>component</b></p><p><b>code</b>: Hispanic Other <span style="background: LightGoldenRodYellow; margin: 4px; border: 1px solid khaki"> (<a href="https://build.fhir.org/ig/HL7/vr-common-library//CodeSystem-codesystem-vr-component.html">Local Component Codes</a>#HispanicOther)</span></p><p><b>value</b>: No <span style="background: LightGoldenRodYellow; margin: 4px; border: 1px solid khaki"> (<a href="http://hl7.org/fhir/R4/v2/0136/index.html">v2 Y/N Indicator</a>#N)</span></p></blockquote></div>
        </text>
        <status value="final"/>
        <code>
          <coding>
            <system value="http://hl7.org/fhir/us/vr-common-library/CodeSystem/CodeSystem-local-observation-codes-vr"/>
            <code value="inputraceandethnicityMother"/>
          </coding>
        </code>
        <subject>
          <reference value="Patient/patient-mother-jada-ann-quinn"/>
          <display value="Patient - Mother (Jada Ann Quinn)"/>
        </subject>
        <component>
          <code>
            <coding>
              <system value="http://hl7.org/fhir/us/vr-common-library/CodeSystem/codesystem-vr-component"/>
              <code value="White"/>
            </coding>
          </code>
          <valueBoolean value="true"/>
        </component>
        <component>
          <code>
            <coding>
              <system value="http://hl7.org/fhir/us/vr-common-library/CodeSystem/codesystem-vr-component"/>
              <code value="BlackOrAfricanAmerican"/>
            </coding>
          </code>
          <valueBoolean value="false"/>
        </component>
        <component>
          <code>
            <coding>
              <system value="http://hl7.org/fhir/us/vr-common-library/CodeSystem/codesystem-vr-component"/>
              <code value="AmericanIndianOrAlaskanNative"/>
            </coding>
          </code>
          <valueBoolean value="true"/>
        </component>
        <component>
          <code>
            <coding>
              <system value="http://hl7.org/fhir/us/vr-common-library/CodeSystem/codesystem-vr-component"/>
              <code value="AsianIndian"/>
            </coding>
          </code>
          <valueBoolean value="false"/>
        </component>
        <component>
          <code>
            <coding>
              <system value="http://hl7.org/fhir/us/vr-common-library/CodeSystem/codesystem-vr-component"/>
              <code value="Chinese"/>
            </coding>
          </code>
          <valueBoolean value="false"/>
        </component>
        <component>
          <code>
            <coding>
              <system value="http://hl7.org/fhir/us/vr-common-library/CodeSystem/codesystem-vr-component"/>
              <code value="Filipino"/>
            </coding>
          </code>
          <valueBoolean value="false"/>
        </component>
        <component>
          <code>
            <coding>
              <system value="http://hl7.org/fhir/us/vr-common-library/CodeSystem/codesystem-vr-component"/>
              <code value="Japanese"/>
            </coding>
          </code>
          <valueBoolean value="false"/>
        </component>
        <component>
          <code>
            <coding>
              <system value="http://hl7.org/fhir/us/vr-common-library/CodeSystem/codesystem-vr-component"/>
              <code value="Korean"/>
            </coding>
          </code>
          <valueBoolean value="false"/>
        </component>
        <component>
          <code>
            <coding>
              <system value="http://hl7.org/fhir/us/vr-common-library/CodeSystem/codesystem-vr-component"/>
              <code value="Vietnamese"/>
            </coding>
          </code>
          <valueBoolean value="false"/>
        </component>
        <component>
          <code>
            <coding>
              <system value="http://hl7.org/fhir/us/vr-common-library/CodeSystem/codesystem-vr-component"/>
              <code value="OtherAsian"/>
            </coding>
          </code>
          <valueBoolean value="true"/>
        </component>
        <component>
          <code>
            <coding>
              <system value="http://hl7.org/fhir/us/vr-common-library/CodeSystem/codesystem-vr-component"/>
              <code value="NativeHawaiian"/>
            </coding>
          </code>
          <valueBoolean value="false"/>
        </component>
        <component>
          <code>
            <coding>
              <system value="http://hl7.org/fhir/us/vr-common-library/CodeSystem/codesystem-vr-component"/>
              <code value="GuamanianOrChamorro"/>
            </coding>
          </code>
          <valueBoolean value="false"/>
        </component>
        <component>
          <code>
            <coding>
              <system value="http://hl7.org/fhir/us/vr-common-library/CodeSystem/codesystem-vr-component"/>
              <code value="Samoan"/>
            </coding>
          </code>
          <valueBoolean value="false"/>
        </component>
        <component>
          <code>
            <coding>
              <system value="http://hl7.org/fhir/us/vr-common-library/CodeSystem/codesystem-vr-component"/>
              <code value="OtherPacificIslander"/>
            </coding>
          </code>
          <valueBoolean value="false"/>
        </component>
        <component>
          <code>
            <coding>
              <system value="http://hl7.org/fhir/us/vr-common-library/CodeSystem/codesystem-vr-component"/>
              <code value="OtherRace"/>
            </coding>
          </code>
          <valueBoolean value="false"/>
        </component>
        <component>
          <code>
            <coding>
              <system value="http://hl7.org/fhir/us/vr-common-library/CodeSystem/codesystem-vr-component"/>
              <code value="HispanicMexican"/>
            </coding>
          </code>
          <valueCodeableConcept>
            <coding>
              <system value="http://terminology.hl7.org/CodeSystem/v2-0136"/>
              <code value="N"/>
              <display value="No"/>
            </coding>
          </valueCodeableConcept>
        </component>
        <component>
          <code>
            <coding>
              <system value="http://hl7.org/fhir/us/vr-common-library/CodeSystem/codesystem-vr-component"/>
              <code value="HispanicCuban"/>
            </coding>
          </code>
          <valueCodeableConcept>
            <coding>
              <system value="http://terminology.hl7.org/CodeSystem/v2-0136"/>
              <code value="N"/>
              <display value="No"/>
            </coding>
          </valueCodeableConcept>
        </component>
        <component>
          <code>
            <coding>
              <system value="http://hl7.org/fhir/us/vr-common-library/CodeSystem/codesystem-vr-component"/>
              <code value="HispanicPuertoRican"/>
            </coding>
          </code>
          <valueCodeableConcept>
            <coding>
              <system value="http://terminology.hl7.org/CodeSystem/v2-0136"/>
              <code value="N"/>
              <display value="No"/>
            </coding>
          </valueCodeableConcept>
        </component>
        <component>
          <code>
            <coding>
              <system value="http://hl7.org/fhir/us/vr-common-library/CodeSystem/codesystem-vr-component"/>
              <code value="HispanicOther"/>
            </coding>
          </code>
          <valueCodeableConcept>
            <coding>
              <system value="http://terminology.hl7.org/CodeSystem/v2-0136"/>
              <code value="N"/>
              <display value="No"/>
            </coding>
          </valueCodeableConcept>
        </component>
      </Observation>
    </resource>
  </entry>
  <entry>
    <fullUrl value="http://www.example.org/fhir/Observation/observation-ssn-requested-for-child-babyg-quinn"/>
    <resource>
      <Observation>
        <id value="observation-ssn-requested-for-child-babyg-quinn"/>
        <meta>
          <profile value="http://hl7.org/fhir/us/bfdr/StructureDefinition/Observation-ssn-requested-for-child"/>
        </meta>
        <text>
          <status value="generated"/><div xmlns="http://www.w3.org/1999/xhtml"><p><b>Generated Narrative: Observation</b><a name="observation-ssn-requested-for-child-babyg-quinn"> </a></p><div style="display: inline-block; background-color: #d9e0e7; padding: 6px; margin: 4px; border: 1px solid #8da1b4; border-radius: 5px; line-height: 60%"><p style="margin-bottom: 0px">Resource Observation &quot;observation-ssn-requested-for-child-babyg-quinn&quot; </p><p style="margin-bottom: 0px">Profile: <a href="StructureDefinition-Observation-ssn-requested-for-child.html">Observation - Social Security Number Requested For Child</a></p></div><p><b>status</b>: final</p><p><b>code</b>: Social Security Number was requested <span style="background: LightGoldenRodYellow; margin: 4px; border: 1px solid khaki"> (<a href="https://loinc.org/">LOINC</a>#87295-2)</span></p><p><b>subject</b>: <a href="#Patient_patient-child-babyg-quinn">See above (Patient/patient-child-babyg-quinn: BabyG Quinn)</a></p><p><b>focus</b>: <a href="#Patient_patient-mother-jada-ann-quinn">See above (Patient/patient-mother-jada-ann-quinn: Patient - Mother (Jada Ann Quinn))</a></p><p><b>effective</b>: 2019-12-02</p><p><b>performer</b>: <a href="#Patient_patient-mother-jada-ann-quinn">See above (Patient/patient-mother-jada-ann-quinn)</a></p><p><b>value</b>: true</p></div>
        </text>
        <status value="final"/>
        <code>
          <coding>
            <system value="http://loinc.org"/>
            <code value="87295-2"/>
          </coding>
        </code>
        <subject>
          <reference value="Patient/patient-child-babyg-quinn"/>
          <display value="BabyG Quinn"/>
        </subject>
        <focus>
          <reference value="Patient/patient-mother-jada-ann-quinn"/>
          <display value="Patient - Mother (Jada Ann Quinn)"/>
        </focus>
        <effectiveDateTime value="2019-12-02"/>
        <performer>
          <reference value="Patient/patient-mother-jada-ann-quinn"/>
        </performer>
        <valueBoolean value="true"/>
      </Observation>
    </resource>
  </entry>
  <entry>
    <fullUrl value="http://www.example.org/fhir/RelatedPerson/relatedperson-father-natural-james-brandon-quinn"/>
    <resource>
      <RelatedPerson>
        <id value="relatedperson-father-natural-james-brandon-quinn"/>
        <meta>
          <profile value="http://hl7.org/fhir/us/vr-common-library/StructureDefinition/RelatedPerson-father-natural-vr"/>
        </meta>
        <text>
          <status value="extensions"/><div xmlns="http://www.w3.org/1999/xhtml"><p><b>Generated Narrative: RelatedPerson</b><a name="relatedperson-father-natural-james-brandon-quinn"> </a></p><div style="display: inline-block; background-color: #d9e0e7; padding: 6px; margin: 4px; border: 1px solid #8da1b4; border-radius: 5px; line-height: 60%"><p style="margin-bottom: 0px">Resource RelatedPerson &quot;relatedperson-father-natural-james-brandon-quinn&quot; </p><p style="margin-bottom: 0px">Profile: <a href="https://build.fhir.org/ig/HL7/vr-common-library//StructureDefinition-RelatedPerson-father-natural-vr.html">RelatedPerson - Father Natural Vital Records</a></p></div><p><b>RelatedPerson Birth Place Vital Records</b>: NY </p><p><b>identifier</b>: Social Security number: <a href="http://terminology.hl7.org/5.0.0/NamingSystem-ssn.html">#</a>132225987</p><p><b>active</b>: true</p><p><b>patient</b>: <a href="#Patient_patient-child-babyg-quinn">See above (Patient/patient-child-babyg-quinn)</a></p><p><b>relationship</b>: Natural Father <span style="background: LightGoldenRodYellow; margin: 4px; border: 1px solid khaki"> (<a href="http://terminology.hl7.org/5.0.0/CodeSystem-v3-RoleCode.html">RoleCode</a>#NFTH &quot;natural father&quot;)</span></p><p><b>name</b>: James Brandon Quinn (OFFICIAL)</p><p><b>gender</b>: male</p><p><b>birthDate</b>: 1972-11-24</p></div>
        </text>
        <extension url="http://hl7.org/fhir/us/vr-common-library/StructureDefinition/Extension-relatedperson-birthplace-vr">
          <valueAddress>
            <state value="NY"/>
          </valueAddress>
        </extension>
        <identifier>
          <type>
            <coding>
              <system value="http://terminology.hl7.org/CodeSystem/v2-0203"/>
              <code value="SS"/>
            </coding>
          </type>
          <system value="http://hl7.org/fhir/sid/us-ssn"/>
          <value value="132225987"/>
        </identifier>
        <active value="true"/>
        <patient>
          <reference value="Patient/patient-child-babyg-quinn"/>
        </patient>
        <relationship>
          <coding>
            <system value="http://terminology.hl7.org/CodeSystem/v3-RoleCode"/>
            <code value="NFTH"/>
            <display value="natural father"/>
          </coding>
          <text value="Natural Father"/>
        </relationship>
        <name>
          <use value="official"/>
          <family value="Quinn"/>
          <given value="James"/>
          <given value="Brandon"/>
        </name>
        <gender value="male"/>
        <birthDate value="1972-11-24"/>
      </RelatedPerson>
    </resource>
  </entry>
  <entry>
    <fullUrl value="http://www.example.org/fhir/Observation/observation-paternity-acknowledgement-signed-james-quinn"/>
    <resource>
      <Observation>
        <id value="observation-paternity-acknowledgement-signed-james-quinn"/>
        <meta>
          <profile value="http://hl7.org/fhir/us/bfdr/StructureDefinition/Observation-paternity-acknowledgement-signed"/>
        </meta>
        <text>
          <status value="generated"/><div xmlns="http://www.w3.org/1999/xhtml"><p><b>Generated Narrative: Observation</b><a name="observation-paternity-acknowledgement-signed-james-quinn"> </a></p><div style="display: inline-block; background-color: #d9e0e7; padding: 6px; margin: 4px; border: 1px solid #8da1b4; border-radius: 5px; line-height: 60%"><p style="margin-bottom: 0px">Resource Observation &quot;observation-paternity-acknowledgement-signed-james-quinn&quot; </p><p style="margin-bottom: 0px">Profile: <a href="StructureDefinition-Observation-paternity-acknowledgement-signed.html">Observation - Paternity Acknowledgement Signed</a></p></div><p><b>status</b>: final</p><p><b>code</b>: Paternity acknowledgment form signed Father <span style="background: LightGoldenRodYellow; margin: 4px; border: 1px solid khaki"> (<a href="https://loinc.org/">LOINC</a>#87302-6)</span></p><p><b>subject</b>: <a href="#Patient_patient-child-babyg-quinn">See above (Patient/patient-child-babyg-quinn: Patient - Child (Baby G Quinn))</a></p><p><b>focus</b>: <a href="#RelatedPerson_relatedperson-father-natural-james-brandon-quinn">See above (RelatedPerson/relatedperson-father-natural-james-brandon-quinn: RelatedPerson - Father (James Brandon Quinn))</a></p><p><b>effective</b>: 2019-12-02</p><p><b>performer</b>: <a href="#Patient_patient-mother-jada-ann-quinn">See above (Patient/patient-mother-jada-ann-quinn)</a></p><p><b>value</b>: Yes <span style="background: LightGoldenRodYellow; margin: 4px; border: 1px solid khaki"> (<a href="http://hl7.org/fhir/R4/v2/0136/index.html">v2 Y/N Indicator</a>#Y)</span></p></div>
        </text>
        <status value="final"/>
        <code>
          <coding>
            <system value="http://loinc.org"/>
            <code value="87302-6"/>
          </coding>
        </code>
        <subject>
          <reference value="Patient/patient-child-babyg-quinn"/>
          <display value="Patient - Child (Baby G Quinn)"/>
        </subject>
        <focus>
          <reference value="RelatedPerson/relatedperson-father-natural-james-brandon-quinn"/>
          <display value="RelatedPerson - Father (James Brandon Quinn)"/>
        </focus>
        <effectiveDateTime value="2019-12-02"/>
        <performer>
          <reference value="Patient/patient-mother-jada-ann-quinn"/>
        </performer>
        <valueCodeableConcept>
          <coding>
            <system value="http://terminology.hl7.org/CodeSystem/v2-0136"/>
            <code value="Y"/>
            <display value="Yes"/>
          </coding>
        </valueCodeableConcept>
      </Observation>
    </resource>
  </entry>
  <entry>
    <fullUrl value="http://www.example.org/fhir/Observation/observation-parent-education-level-james-quinn"/>
    <resource>
      <Observation>
        <id value="observation-parent-education-level-james-quinn"/>
        <meta>
          <profile value="http://hl7.org/fhir/us/vr-common-library/StructureDefinition/Observation-education-level-vr"/>
        </meta>
        <text>
          <status value="generated"/><div xmlns="http://www.w3.org/1999/xhtml"><p><b>Generated Narrative: Observation</b><a name="observation-parent-education-level-james-quinn"> </a></p><div style="display: inline-block; background-color: #d9e0e7; padding: 6px; margin: 4px; border: 1px solid #8da1b4; border-radius: 5px; line-height: 60%"><p style="margin-bottom: 0px">Resource Observation &quot;observation-parent-education-level-james-quinn&quot; </p><p style="margin-bottom: 0px">Profile: <a href="https://build.fhir.org/ig/HL7/vr-common-library//StructureDefinition-Observation-education-level-vr.html">Observation - Education Level Vital Records</a></p></div><p><b>status</b>: final</p><p><b>code</b>: Highest level of education Father <span style="background: LightGoldenRodYellow; margin: 4px; border: 1px solid khaki"> (<a href="https://loinc.org/">LOINC</a>#87300-0)</span></p><p><b>subject</b>: <a href="#Patient_patient-child-babyg-quinn">See above (Patient/patient-child-babyg-quinn)</a></p><p><b>focus</b>: <a href="#RelatedPerson_relatedperson-father-natural-james-brandon-quinn">See above (RelatedPerson/relatedperson-father-natural-james-brandon-quinn)</a></p><p><b>effective</b>: 2019-12-02</p><p><b>performer</b>: <a href="#Patient_patient-mother-jada-ann-quinn">See above (Patient/patient-mother-jada-ann-quinn)</a></p><p><b>value</b>: Doctoral or post graduate education <span style="background: LightGoldenRodYellow; margin: 4px; border: 1px solid khaki"> (<a href="http://terminology.hl7.org/5.0.0/CodeSystem-v3-EducationLevel.html">Education Level</a>#POSTG)</span></p></div>
        </text>
        <status value="final"/>
        <code>
          <coding>
            <system value="http://loinc.org"/>
            <code value="87300-0"/>
            <display value="Highest level of education Father"/>
          </coding>
        </code>
        <subject>
          <reference value="Patient/patient-child-babyg-quinn"/>
        </subject>
        <focus>
          <reference value="RelatedPerson/relatedperson-father-natural-james-brandon-quinn"/>
        </focus>
        <effectiveDateTime value="2019-12-02"/>
        <performer>
          <reference value="Patient/patient-mother-jada-ann-quinn"/>
        </performer>
        <valueCodeableConcept>
          <coding>
            <system value="http://terminology.hl7.org/CodeSystem/v3-EducationLevel"/>
            <code value="POSTG"/>
            <display value="Doctoral or post graduate education"/>
          </coding>
          <text value="Doctoral or post graduate education"/>
        </valueCodeableConcept>
      </Observation>
    </resource>
  </entry>
  <entry>
    <fullUrl value="http://www.example.org/fhir/Observation/observation-usual-work-james-brandon-quinn"/>
    <resource>
      <Observation>
        <id value="observation-usual-work-james-brandon-quinn"/>
        <meta>
          <profile value="http://hl7.org/fhir/us/vr-common-library/StructureDefinition/Observation-usual-work-vr"/>
        </meta>
        <text>
          <status value="extensions"/><div xmlns="http://www.w3.org/1999/xhtml"><p><b>Generated Narrative: Observation</b><a name="observation-usual-work-james-brandon-quinn"> </a></p><div style="display: inline-block; background-color: #d9e0e7; padding: 6px; margin: 4px; border: 1px solid #8da1b4; border-radius: 5px; line-height: 60%"><p style="margin-bottom: 0px">Resource Observation &quot;observation-usual-work-james-brandon-quinn&quot; </p><p style="margin-bottom: 0px">Profile: <a href="https://build.fhir.org/ig/HL7/vr-common-library//StructureDefinition-Observation-usual-work-vr.html">Observation - Usual Work</a></p></div><p><b>Role Vital Records</b>: father <span style="background: LightGoldenRodYellow; margin: 4px; border: 1px solid khaki"> (<a href="http://terminology.hl7.org/5.0.0/CodeSystem-v3-RoleCode.html">RoleCode</a>#FTH)</span></p><p><b>status</b>: final</p><p><b>code</b>: History of Usual occupation <span style="background: LightGoldenRodYellow; margin: 4px; border: 1px solid khaki"> (<a href="https://loinc.org/">LOINC</a>#21843-8)</span></p><p><b>subject</b>: <a href="#Patient_patient-child-babyg-quinn">See above (Patient/patient-child-babyg-quinn)</a></p><p><b>focus</b>: <span>: James Brandon Quinn - Father</span></p><p><b>value</b>: Lawyer <span style="background: LightGoldenRodYellow; margin: 4px; border: 1px solid khaki"> ()</span></p><h3>Components</h3><table class="grid"><tr><td style="display: none">-</td><td><b>Code</b></td><td><b>Value[x]</b></td></tr><tr><td style="display: none">*</td><td>History of Usual industry <span style="background: LightGoldenRodYellow; margin: 4px; border: 1px solid khaki"> (<a href="https://loinc.org/">LOINC</a>#21844-6)</span></td><td>Legal Services <span style="background: LightGoldenRodYellow; margin: 4px; border: 1px solid khaki"> ()</span></td></tr></table></div>
        </text>
        <extension url="http://hl7.org/fhir/us/vr-common-library/StructureDefinition/Extension-role-vr">
          <valueCodeableConcept>
            <coding>
              <system value="http://terminology.hl7.org/CodeSystem/v3-RoleCode"/>
              <code value="FTH"/>
              <display value="father"/>
            </coding>
          </valueCodeableConcept>
        </extension>
        <status value="final"/>
        <code>
          <coding>
            <system value="http://loinc.org"/>
            <code value="21843-8"/>
          </coding>
        </code>
        <subject>
          <reference value="Patient/patient-child-babyg-quinn"/>
        </subject>
        <focus>
          <display value="James Brandon Quinn - Father"/>
        </focus>
        <valueCodeableConcept>
          <text value="Lawyer"/>
        </valueCodeableConcept>
        <component>
          <code>
            <coding>
              <system value="http://loinc.org"/>
              <code value="21844-6"/>
            </coding>
          </code>
          <valueCodeableConcept>
            <text value="Legal Services"/>
          </valueCodeableConcept>
        </component>
      </Observation>
    </resource>
  </entry>
  <entry>
    <fullUrl value="http://www.example.org/fhir/Observation/observation-input-race-and-ethnicity-james-quinn"/>
    <resource>
      <Observation>
        <id value="observation-input-race-and-ethnicity-james-quinn"/>
        <meta>
          <profile value="http://hl7.org/fhir/us/vr-common-library/StructureDefinition/input-race-and-ethnicity-vr"/>
        </meta>
        <text>
          <status value="generated"/><div xmlns="http://www.w3.org/1999/xhtml"><p><b>Generated Narrative: Observation</b><a name="observation-input-race-and-ethnicity-james-quinn"> </a></p><div style="display: inline-block; background-color: #d9e0e7; padding: 6px; margin: 4px; border: 1px solid #8da1b4; border-radius: 5px; line-height: 60%"><p style="margin-bottom: 0px">Resource Observation &quot;observation-input-race-and-ethnicity-james-quinn&quot; </p><p style="margin-bottom: 0px">Profile: <a href="https://build.fhir.org/ig/HL7/vr-common-library//StructureDefinition-input-race-and-ethnicity-vr.html">Observation - Input Race and Ethnicity Vital Records</a></p></div><p><b>status</b>: final</p><p><b>code</b>: Father Input Race and Ethnicity <span style="background: LightGoldenRodYellow; margin: 4px; border: 1px solid khaki"> (<a href="https://build.fhir.org/ig/HL7/vr-common-library//CodeSystem-CodeSystem-local-observation-codes-vr.html">Local Observation Codes Vital Records</a>#inputraceandethnicityFather)</span></p><p><b>subject</b>: <a href="#Patient_patient-child-babyg-quinn">See above (Patient/patient-child-babyg-quinn: BabyG Quinn)</a></p><p><b>focus</b>: <a href="#RelatedPerson_relatedperson-father-natural-james-brandon-quinn">See above (RelatedPerson/relatedperson-father-natural-james-brandon-quinn)</a></p><blockquote><p><b>component</b></p><p><b>code</b>: White <span style="background: LightGoldenRodYellow; margin: 4px; border: 1px solid khaki"> (<a href="https://build.fhir.org/ig/HL7/vr-common-library//CodeSystem-codesystem-vr-component.html">Local Component Codes</a>#White)</span></p><p><b>value</b>: true</p></blockquote><blockquote><p><b>component</b></p><p><b>code</b>: Black Or African American <span style="background: LightGoldenRodYellow; margin: 4px; border: 1px solid khaki"> (<a href="https://build.fhir.org/ig/HL7/vr-common-library//CodeSystem-codesystem-vr-component.html">Local Component Codes</a>#BlackOrAfricanAmerican)</span></p><p><b>value</b>: false</p></blockquote><blockquote><p><b>component</b></p><p><b>code</b>: American Indian Or Alaska Native <span style="background: LightGoldenRodYellow; margin: 4px; border: 1px solid khaki"> (<a href="https://build.fhir.org/ig/HL7/vr-common-library//CodeSystem-codesystem-vr-component.html">Local Component Codes</a>#AmericanIndianOrAlaskanNative)</span></p><p><b>value</b>: false</p></blockquote><blockquote><p><b>component</b></p><p><b>code</b>: Asian Indian <span style="background: LightGoldenRodYellow; margin: 4px; border: 1px solid khaki"> (<a href="https://build.fhir.org/ig/HL7/vr-common-library//CodeSystem-codesystem-vr-component.html">Local Component Codes</a>#AsianIndian)</span></p><p><b>value</b>: false</p></blockquote><blockquote><p><b>component</b></p><p><b>code</b>: Chinese <span style="background: LightGoldenRodYellow; margin: 4px; border: 1px solid khaki"> (<a href="https://build.fhir.org/ig/HL7/vr-common-library//CodeSystem-codesystem-vr-component.html">Local Component Codes</a>#Chinese)</span></p><p><b>value</b>: false</p></blockquote><blockquote><p><b>component</b></p><p><b>code</b>: Filipino <span style="background: LightGoldenRodYellow; margin: 4px; border: 1px solid khaki"> (<a href="https://build.fhir.org/ig/HL7/vr-common-library//CodeSystem-codesystem-vr-component.html">Local Component Codes</a>#Filipino)</span></p><p><b>value</b>: false</p></blockquote><blockquote><p><b>component</b></p><p><b>code</b>: Japanese <span style="background: LightGoldenRodYellow; margin: 4px; border: 1px solid khaki"> (<a href="https://build.fhir.org/ig/HL7/vr-common-library//CodeSystem-codesystem-vr-component.html">Local Component Codes</a>#Japanese)</span></p><p><b>value</b>: false</p></blockquote><blockquote><p><b>component</b></p><p><b>code</b>: Korean <span style="background: LightGoldenRodYellow; margin: 4px; border: 1px solid khaki"> (<a href="https://build.fhir.org/ig/HL7/vr-common-library//CodeSystem-codesystem-vr-component.html">Local Component Codes</a>#Korean)</span></p><p><b>value</b>: false</p></blockquote><blockquote><p><b>component</b></p><p><b>code</b>: Vietnamese <span style="background: LightGoldenRodYellow; margin: 4px; border: 1px solid khaki"> (<a href="https://build.fhir.org/ig/HL7/vr-common-library//CodeSystem-codesystem-vr-component.html">Local Component Codes</a>#Vietnamese)</span></p><p><b>value</b>: false</p></blockquote><blockquote><p><b>component</b></p><p><b>code</b>: Other Asian <span style="background: LightGoldenRodYellow; margin: 4px; border: 1px solid khaki"> (<a href="https://build.fhir.org/ig/HL7/vr-common-library//CodeSystem-codesystem-vr-component.html">Local Component Codes</a>#OtherAsian)</span></p><p><b>value</b>: false</p></blockquote><blockquote><p><b>component</b></p><p><b>code</b>: Native Hawaiian <span style="background: LightGoldenRodYellow; margin: 4px; border: 1px solid khaki"> (<a href="https://build.fhir.org/ig/HL7/vr-common-library//CodeSystem-codesystem-vr-component.html">Local Component Codes</a>#NativeHawaiian)</span></p><p><b>value</b>: false</p></blockquote><blockquote><p><b>component</b></p><p><b>code</b>: Guamanian Or Chamorro <span style="background: LightGoldenRodYellow; margin: 4px; border: 1px solid khaki"> (<a href="https://build.fhir.org/ig/HL7/vr-common-library//CodeSystem-codesystem-vr-component.html">Local Component Codes</a>#GuamanianOrChamorro)</span></p><p><b>value</b>: false</p></blockquote><blockquote><p><b>component</b></p><p><b>code</b>: Samoan <span style="background: LightGoldenRodYellow; margin: 4px; border: 1px solid khaki"> (<a href="https://build.fhir.org/ig/HL7/vr-common-library//CodeSystem-codesystem-vr-component.html">Local Component Codes</a>#Samoan)</span></p><p><b>value</b>: false</p></blockquote><blockquote><p><b>component</b></p><p><b>code</b>: Other Pacific Islander <span style="background: LightGoldenRodYellow; margin: 4px; border: 1px solid khaki"> (<a href="https://build.fhir.org/ig/HL7/vr-common-library//CodeSystem-codesystem-vr-component.html">Local Component Codes</a>#OtherPacificIslander)</span></p><p><b>value</b>: false</p></blockquote><blockquote><p><b>component</b></p><p><b>code</b>: Other Race <span style="background: LightGoldenRodYellow; margin: 4px; border: 1px solid khaki"> (<a href="https://build.fhir.org/ig/HL7/vr-common-library//CodeSystem-codesystem-vr-component.html">Local Component Codes</a>#OtherRace)</span></p><p><b>value</b>: false</p></blockquote><blockquote><p><b>component</b></p><p><b>code</b>: First Other Asian Literal <span style="background: LightGoldenRodYellow; margin: 4px; border: 1px solid khaki"> (<a href="https://build.fhir.org/ig/HL7/vr-common-library//CodeSystem-codesystem-vr-component.html">Local Component Codes</a>#FirstOtherAsianLiteral)</span></p><p><b>value</b>: Malaysian</p></blockquote><blockquote><p><b>component</b></p><p><b>code</b>: First American Indian Or Alaska Native Literal <span style="background: LightGoldenRodYellow; margin: 4px; border: 1px solid khaki"> (<a href="https://build.fhir.org/ig/HL7/vr-common-library//CodeSystem-codesystem-vr-component.html">Local Component Codes</a>#FirstAmericanIndianOrAlaskanNativeLiteral)</span></p><p><b>value</b>: Arikara</p></blockquote><blockquote><p><b>component</b></p><p><b>code</b>: Hispanic Mexican <span style="background: LightGoldenRodYellow; margin: 4px; border: 1px solid khaki"> (<a href="https://build.fhir.org/ig/HL7/vr-common-library//CodeSystem-codesystem-vr-component.html">Local Component Codes</a>#HispanicMexican)</span></p><p><b>value</b>: No <span style="background: LightGoldenRodYellow; margin: 4px; border: 1px solid khaki"> (<a href="http://hl7.org/fhir/R4/v2/0136/index.html">v2 Y/N Indicator</a>#N)</span></p></blockquote><blockquote><p><b>component</b></p><p><b>code</b>: Hispanic Cuban <span style="background: LightGoldenRodYellow; margin: 4px; border: 1px solid khaki"> (<a href="https://build.fhir.org/ig/HL7/vr-common-library//CodeSystem-codesystem-vr-component.html">Local Component Codes</a>#HispanicCuban)</span></p><p><b>value</b>: No <span style="background: LightGoldenRodYellow; margin: 4px; border: 1px solid khaki"> (<a href="http://hl7.org/fhir/R4/v2/0136/index.html">v2 Y/N Indicator</a>#N)</span></p></blockquote><blockquote><p><b>component</b></p><p><b>code</b>: Hispanic Puerto Rican <span style="background: LightGoldenRodYellow; margin: 4px; border: 1px solid khaki"> (<a href="https://build.fhir.org/ig/HL7/vr-common-library//CodeSystem-codesystem-vr-component.html">Local Component Codes</a>#HispanicPuertoRican)</span></p><p><b>value</b>: No <span style="background: LightGoldenRodYellow; margin: 4px; border: 1px solid khaki"> (<a href="http://hl7.org/fhir/R4/v2/0136/index.html">v2 Y/N Indicator</a>#N)</span></p></blockquote><blockquote><p><b>component</b></p><p><b>code</b>: Hispanic Other <span style="background: LightGoldenRodYellow; margin: 4px; border: 1px solid khaki"> (<a href="https://build.fhir.org/ig/HL7/vr-common-library//CodeSystem-codesystem-vr-component.html">Local Component Codes</a>#HispanicOther)</span></p><p><b>value</b>: No <span style="background: LightGoldenRodYellow; margin: 4px; border: 1px solid khaki"> (<a href="http://hl7.org/fhir/R4/v2/0136/index.html">v2 Y/N Indicator</a>#N)</span></p></blockquote></div>
        </text>
        <status value="final"/>
        <code>
          <coding>
            <system value="http://hl7.org/fhir/us/vr-common-library/CodeSystem/CodeSystem-local-observation-codes-vr"/>
            <code value="inputraceandethnicityFather"/>
          </coding>
        </code>
        <subject>
          <reference value="Patient/patient-child-babyg-quinn"/>
          <display value="BabyG Quinn"/>
        </subject>
        <focus>
          <reference value="RelatedPerson/relatedperson-father-natural-james-brandon-quinn"/>
        </focus>
        <component>
          <code>
            <coding>
              <system value="http://hl7.org/fhir/us/vr-common-library/CodeSystem/codesystem-vr-component"/>
              <code value="White"/>
            </coding>
          </code>
          <valueBoolean value="true"/>
        </component>
        <component>
          <code>
            <coding>
              <system value="http://hl7.org/fhir/us/vr-common-library/CodeSystem/codesystem-vr-component"/>
              <code value="BlackOrAfricanAmerican"/>
            </coding>
          </code>
          <valueBoolean value="false"/>
        </component>
        <component>
          <code>
            <coding>
              <system value="http://hl7.org/fhir/us/vr-common-library/CodeSystem/codesystem-vr-component"/>
              <code value="AmericanIndianOrAlaskanNative"/>
            </coding>
          </code>
          <valueBoolean value="false"/>
        </component>
        <component>
          <code>
            <coding>
              <system value="http://hl7.org/fhir/us/vr-common-library/CodeSystem/codesystem-vr-component"/>
              <code value="AsianIndian"/>
            </coding>
          </code>
          <valueBoolean value="false"/>
        </component>
        <component>
          <code>
            <coding>
              <system value="http://hl7.org/fhir/us/vr-common-library/CodeSystem/codesystem-vr-component"/>
              <code value="Chinese"/>
            </coding>
          </code>
          <valueBoolean value="false"/>
        </component>
        <component>
          <code>
            <coding>
              <system value="http://hl7.org/fhir/us/vr-common-library/CodeSystem/codesystem-vr-component"/>
              <code value="Filipino"/>
            </coding>
          </code>
          <valueBoolean value="false"/>
        </component>
        <component>
          <code>
            <coding>
              <system value="http://hl7.org/fhir/us/vr-common-library/CodeSystem/codesystem-vr-component"/>
              <code value="Japanese"/>
            </coding>
          </code>
          <valueBoolean value="false"/>
        </component>
        <component>
          <code>
            <coding>
              <system value="http://hl7.org/fhir/us/vr-common-library/CodeSystem/codesystem-vr-component"/>
              <code value="Korean"/>
            </coding>
          </code>
          <valueBoolean value="false"/>
        </component>
        <component>
          <code>
            <coding>
              <system value="http://hl7.org/fhir/us/vr-common-library/CodeSystem/codesystem-vr-component"/>
              <code value="Vietnamese"/>
            </coding>
          </code>
          <valueBoolean value="false"/>
        </component>
        <component>
          <code>
            <coding>
              <system value="http://hl7.org/fhir/us/vr-common-library/CodeSystem/codesystem-vr-component"/>
              <code value="OtherAsian"/>
            </coding>
          </code>
          <valueBoolean value="false"/>
        </component>
        <component>
          <code>
            <coding>
              <system value="http://hl7.org/fhir/us/vr-common-library/CodeSystem/codesystem-vr-component"/>
              <code value="NativeHawaiian"/>
            </coding>
          </code>
          <valueBoolean value="false"/>
        </component>
        <component>
          <code>
            <coding>
              <system value="http://hl7.org/fhir/us/vr-common-library/CodeSystem/codesystem-vr-component"/>
              <code value="GuamanianOrChamorro"/>
            </coding>
          </code>
          <valueBoolean value="false"/>
        </component>
        <component>
          <code>
            <coding>
              <system value="http://hl7.org/fhir/us/vr-common-library/CodeSystem/codesystem-vr-component"/>
              <code value="Samoan"/>
            </coding>
          </code>
          <valueBoolean value="false"/>
        </component>
        <component>
          <code>
            <coding>
              <system value="http://hl7.org/fhir/us/vr-common-library/CodeSystem/codesystem-vr-component"/>
              <code value="OtherPacificIslander"/>
            </coding>
          </code>
          <valueBoolean value="false"/>
        </component>
        <component>
          <code>
            <coding>
              <system value="http://hl7.org/fhir/us/vr-common-library/CodeSystem/codesystem-vr-component"/>
              <code value="OtherRace"/>
            </coding>
          </code>
          <valueBoolean value="false"/>
        </component>
        <component>
          <code>
            <coding>
              <system value="http://hl7.org/fhir/us/vr-common-library/CodeSystem/codesystem-vr-component"/>
              <code value="FirstOtherAsianLiteral"/>
            </coding>
          </code>
          <valueString value="Malaysian"/>
        </component>
        <component>
          <code>
            <coding>
              <system value="http://hl7.org/fhir/us/vr-common-library/CodeSystem/codesystem-vr-component"/>
              <code value="FirstAmericanIndianOrAlaskanNativeLiteral"/>
            </coding>
          </code>
          <valueString value="Arikara"/>
        </component>
        <component>
          <code>
            <coding>
              <system value="http://hl7.org/fhir/us/vr-common-library/CodeSystem/codesystem-vr-component"/>
              <code value="HispanicMexican"/>
            </coding>
          </code>
          <valueCodeableConcept>
            <coding>
              <system value="http://terminology.hl7.org/CodeSystem/v2-0136"/>
              <code value="N"/>
              <display value="No"/>
            </coding>
          </valueCodeableConcept>
        </component>
        <component>
          <code>
            <coding>
              <system value="http://hl7.org/fhir/us/vr-common-library/CodeSystem/codesystem-vr-component"/>
              <code value="HispanicCuban"/>
            </coding>
          </code>
          <valueCodeableConcept>
            <coding>
              <system value="http://terminology.hl7.org/CodeSystem/v2-0136"/>
              <code value="N"/>
              <display value="No"/>
            </coding>
          </valueCodeableConcept>
        </component>
        <component>
          <code>
            <coding>
              <system value="http://hl7.org/fhir/us/vr-common-library/CodeSystem/codesystem-vr-component"/>
              <code value="HispanicPuertoRican"/>
            </coding>
          </code>
          <valueCodeableConcept>
            <coding>
              <system value="http://terminology.hl7.org/CodeSystem/v2-0136"/>
              <code value="N"/>
              <display value="No"/>
            </coding>
          </valueCodeableConcept>
        </component>
        <component>
          <code>
            <coding>
              <system value="http://hl7.org/fhir/us/vr-common-library/CodeSystem/codesystem-vr-component"/>
              <code value="HispanicOther"/>
            </coding>
          </code>
          <valueCodeableConcept>
            <coding>
              <system value="http://terminology.hl7.org/CodeSystem/v2-0136"/>
              <code value="N"/>
              <display value="No"/>
            </coding>
          </valueCodeableConcept>
        </component>
      </Observation>
    </resource>
  </entry>
  <entry>
    <fullUrl value="http://www.example.org/fhir/QuestionnaireResponse/QuestionnaireResponse-mothers-live-birth-jada-quinn"/>
    <resource>
      <QuestionnaireResponse>
        <id value="QuestionnaireResponse-mothers-live-birth-jada-quinn"/>
        <text>
          <status value="generated"/><div xmlns="http://www.w3.org/1999/xhtml"><p><b>Generated Narrative: QuestionnaireResponse</b><a name="QuestionnaireResponse-mothers-live-birth-jada-quinn"> </a></p><div style="display: inline-block; background-color: #d9e0e7; padding: 6px; margin: 4px; border: 1px solid #8da1b4; border-radius: 5px; line-height: 60%"><p style="margin-bottom: 0px">Resource QuestionnaireResponse &quot;QuestionnaireResponse-mothers-live-birth-jada-quinn&quot; </p></div><p><b>questionnaire</b>: <a href="Questionnaire-Questionnaire-mothers-live-birth.html">Questionnaire - Mother's Worksheet for Child's Birth Certificate</a></p><p><b>status</b>: completed</p><p><b>subject</b>: <a href="#Patient_patient-child-babyg-quinn">See above (Patient/patient-child-babyg-quinn: BabyG Quinn)</a></p><p><b>source</b>: <a href="#Patient_patient-mother-jada-ann-quinn">See above (Patient/patient-mother-jada-ann-quinn: Patient - Mother (Jada Ann Quinn))</a></p><blockquote><p><b>item</b></p><p><b>linkId</b>: mother-current-legal-name</p><p><b>text</b>: What is your current legal name?</p><blockquote><p><b>item</b></p><p><b>linkId</b>: mother-first-name</p><p><b>text</b>: First</p><blockquote><p><b>answer</b></p></blockquote></blockquote><blockquote><p><b>item</b></p><p><b>linkId</b>: mother-middle-name</p><p><b>text</b>: Middle</p><blockquote><p><b>answer</b></p></blockquote></blockquote><blockquote><p><b>item</b></p><p><b>linkId</b>: mother-last-name</p><p><b>text</b>: Last</p><blockquote><p><b>answer</b></p></blockquote></blockquote></blockquote><blockquote><p><b>item</b></p><p><b>linkId</b>: child-name</p><p><b>text</b>: What will be your baby's legal name (as it should appear on the birth certificate)?</p><blockquote><p><b>item</b></p><p><b>linkId</b>: child-first-name</p><p><b>text</b>: First</p><blockquote><p><b>answer</b></p></blockquote></blockquote><blockquote><p><b>item</b></p><p><b>linkId</b>: child-middle-name</p><p><b>text</b>: Middle</p><blockquote><p><b>answer</b></p></blockquote></blockquote><blockquote><p><b>item</b></p><p><b>linkId</b>: child-last-name</p><p><b>text</b>: Last</p><blockquote><p><b>answer</b></p></blockquote></blockquote></blockquote><blockquote><p><b>item</b></p><p><b>linkId</b>: mother-address</p><p><b>text</b>: Where do you usually live - that is - where is your household/residence located?</p><blockquote><p><b>item</b></p><p><b>linkId</b>: mother-nbr-street</p><p><b>text</b>: Complete number and street (do not enter rural route numbers)</p><blockquote><p><b>answer</b></p></blockquote></blockquote><blockquote><p><b>item</b></p><p><b>linkId</b>: mother-city</p><p><b>text</b>: City, Town, or Location</p><blockquote><p><b>answer</b></p></blockquote></blockquote><blockquote><p><b>item</b></p><p><b>linkId</b>: mother-county</p><p><b>text</b>: County</p><blockquote><p><b>answer</b></p></blockquote></blockquote><blockquote><p><b>item</b></p><p><b>linkId</b>: mother-state</p><p><b>text</b>: State (or U.S. Territory, Canadian Province)</p><blockquote><p><b>answer</b></p></blockquote></blockquote><blockquote><p><b>item</b></p><p><b>linkId</b>: mother-zip</p><p><b>text</b>: Zip Code</p><blockquote><p><b>answer</b></p></blockquote></blockquote></blockquote><blockquote><p><b>item</b></p><p><b>linkId</b>: inside-city-limits</p><p><b>text</b>: Is this household inside city limits (inside the incorporated limits of the city, town, or location where you live)?</p><h3>Answers</h3><table class="grid"><tr><td style="display: none">-</td><td><b>Value[x]</b></td></tr><tr><td style="display: none">*</td><td>Yes (Details: http://terminology.hl7.org/CodeSystem/v2-0136 code Y = 'Yes', stated as 'Yes')</td></tr></table></blockquote><blockquote><p><b>item</b></p><p><b>linkId</b>: mother-mail</p><p><b>text</b>: What is your mailing address</p><blockquote><p><b>item</b></p><p><b>linkId</b>: mother-mail-same</p><p><b>text</b>: Same as residence [Go to next question]</p><blockquote><p><b>answer</b></p></blockquote></blockquote><blockquote><p><b>item</b></p><p><b>linkId</b>: mother-mail-nbr-street</p><p><b>text</b>: Complete number and street</p><blockquote><p><b>answer</b></p></blockquote></blockquote><blockquote><p><b>item</b></p><p><b>linkId</b>: mother-mail-city</p><p><b>text</b>: City, Town, or Location</p><blockquote><p><b>answer</b></p></blockquote></blockquote><blockquote><p><b>item</b></p><p><b>linkId</b>: mother-mail-state</p><p><b>text</b>: State (or U.S. Territory, Canadian Province)</p><blockquote><p><b>answer</b></p></blockquote></blockquote><blockquote><p><b>item</b></p><p><b>linkId</b>: mother-mail-zip</p><p><b>text</b>: Zip Code</p><blockquote><p><b>answer</b></p></blockquote></blockquote></blockquote><blockquote><p><b>item</b></p><p><b>linkId</b>: mother-dob</p><p><b>text</b>: What is your date of birth?</p><h3>Answers</h3><table class="grid"><tr><td style="display: none">-</td><td><b>Value[x]</b></td></tr><tr><td style="display: none">*</td><td>1985-01-15</td></tr></table></blockquote><blockquote><p><b>item</b></p><p><b>linkId</b>: mother-birthplace</p><p><b>text</b>: In what State, U.S. territory, or foreign country were you born? Please specify one of the following:</p><blockquote><p><b>item</b></p><p><b>linkId</b>: mother-birthplace-state</p><p><b>text</b>: State</p><blockquote><p><b>answer</b></p></blockquote></blockquote></blockquote><blockquote><p><b>item</b></p><p><b>linkId</b>: mother-education</p><p><b>text</b>: What is the highest level of schooling that you have completed at the time of delivery? (Check the box that best describes your education. If you are currently enrolled, check the box that indicates the previous grade or highest degree received).</p><h3>Answers</h3><table class="grid"><tr><td style="display: none">-</td><td><b>Value[x]</b></td></tr><tr><td style="display: none">*</td><td>Doctoral or post graduate education (Details: http://terminology.hl7.org/CodeSystem/v3-EducationLevel code POSTG = 'Doctoral or post graduate education', stated as 'Doctoral or post graduate education')</td></tr></table></blockquote><blockquote><p><b>item</b></p><p><b>linkId</b>: mother-ethnicity</p><h3>Answers</h3><table class="grid"><tr><td style="display: none">-</td><td><b>Value[x]</b></td></tr><tr><td style="display: none">*</td><td>false</td></tr></table></blockquote><blockquote><p><b>item</b></p><p><b>linkId</b>: mother-race</p><blockquote><p><b>item</b></p><p><b>linkId</b>: mother-race-white</p><p><b>text</b>: White</p><blockquote><p><b>answer</b></p></blockquote></blockquote><blockquote><p><b>item</b></p><p><b>linkId</b>: mother-race-aian</p><p><b>text</b>: American Indian or Alaskan Native</p><blockquote><p><b>answer</b></p></blockquote></blockquote></blockquote><blockquote><p><b>item</b></p><p><b>linkId</b>: receive-wic</p><p><b>text</b>: Did you receive WIC (Women, Infants and Children) food for yourself during this pregnancy?</p><h3>Answers</h3><table class="grid"><tr><td style="display: none">-</td><td><b>Value[x]</b></td></tr><tr><td style="display: none">*</td><td>Yes (Details: http://terminology.hl7.org/CodeSystem/v2-0136 code Y = 'Yes', stated as 'Yes')</td></tr></table></blockquote><blockquote><p><b>item</b></p><p><b>linkId</b>: infertility-treatment</p><p><b>text</b>: Did this pregnancy result from infertility treatment? (If yes, please answer 12a and 12b)</p><blockquote><p><b>answer</b></p><p><b>value</b>: true</p><blockquote><p><b>item</b></p><p><b>linkId</b>: drugs-ai-ii</p><p><b>text</b>: If yes, did this pregnancy result from fertility-enhancing drugs, artificial insemination, or intrauterine insemination?</p><blockquote><p><b>answer</b></p></blockquote></blockquote><blockquote><p><b>item</b></p><p><b>linkId</b>: art-ivf-gift</p><p><b>text</b>: If yes, did this pregnancy result from assisted reproductive technology (e.g., in-vitro fertilization (IVF), gamete intrafallopian transfer (GIFT))?</p><blockquote><p><b>answer</b></p></blockquote></blockquote></blockquote></blockquote><blockquote><p><b>item</b></p><p><b>linkId</b>: mothers-height</p><p><b>text</b>: What is your height?</p><blockquote><p><b>item</b></p><p><b>linkId</b>: mothers-height-feet</p><p><b>text</b>: Feet</p><blockquote><p><b>answer</b></p></blockquote></blockquote><blockquote><p><b>item</b></p><p><b>linkId</b>: mothers-height-inches</p><p><b>text</b>: Inches</p><blockquote><p><b>answer</b></p></blockquote></blockquote></blockquote><blockquote><p><b>item</b></p><p><b>linkId</b>: mothers-prepregnancy-weight</p><h3>Answers</h3><table class="grid"><tr><td style="display: none">-</td><td><b>Value[x]</b></td></tr><tr><td style="display: none">*</td><td>145 [lb_av]<span style="background: LightGoldenRodYellow"> (Details: UCUM code [lb_av] = '[lb_av]')</span></td></tr></table></blockquote><blockquote><p><b>item</b></p><p><b>linkId</b>: mothers-smoking</p><p><b>text</b>: How many cigarettes OR packs of cigarettes did you smoke on an average day during each of the following time periods? If you NEVER smoked, enter zero for each time period.</p><blockquote><p><b>item</b></p><p><b>linkId</b>: mothers-smoking-3-months-prior</p><p><b>text</b>: Three months before pregnancy</p><blockquote><p><b>item</b></p></blockquote><blockquote><p><b>item</b></p></blockquote></blockquote><blockquote><p><b>item</b></p><p><b>linkId</b>: mothers-smoking-trimester-1</p><p><b>text</b>: First three months of pregnancy</p><blockquote><p><b>item</b></p></blockquote><blockquote><p><b>item</b></p></blockquote></blockquote><blockquote><p><b>item</b></p><p><b>linkId</b>: mothers-smoking-trimester-2</p><p><b>text</b>: Second three months of pregnancy</p><blockquote><p><b>item</b></p></blockquote><blockquote><p><b>item</b></p></blockquote></blockquote><blockquote><p><b>item</b></p><p><b>linkId</b>: mothers-smoking-trimester-3</p><p><b>text</b>: Third trimester of pregnancy</p><blockquote><p><b>item</b></p></blockquote><blockquote><p><b>item</b></p></blockquote></blockquote></blockquote><blockquote><p><b>item</b></p><p><b>linkId</b>: mother-prior-name</p><p><b>text</b>: What name did you use prior to your first marriage?</p><blockquote><p><b>item</b></p><p><b>linkId</b>: mother-prior-first-name</p><p><b>text</b>: First</p><blockquote><p><b>answer</b></p></blockquote></blockquote><blockquote><p><b>item</b></p><p><b>linkId</b>: mother-prior-middle-name</p><p><b>text</b>: Middle</p><blockquote><p><b>answer</b></p></blockquote></blockquote><blockquote><p><b>item</b></p><p><b>linkId</b>: mother-prior-last-name</p><p><b>text</b>: Last</p><blockquote><p><b>answer</b></p></blockquote></blockquote></blockquote><blockquote><p><b>item</b></p><p><b>linkId</b>: married-conception</p><p><b>text</b>: Were you married at the time you conceived this child, at the time of birth, or at any time between conception and giving birth? [If yes, please go to question 19; If no, please see below]</p><h3>Answers</h3><table class="grid"><tr><td style="display: none">-</td><td><b>Value[x]</b></td></tr><tr><td style="display: none">*</td><td>true</td></tr></table></blockquote><blockquote><p><b>item</b></p><p><b>linkId</b>: father-current-legal-name</p><p><b>text</b>: What is the current legal name of your baby's father?</p><blockquote><p><b>item</b></p><p><b>linkId</b>: father-first-name</p><p><b>text</b>: First</p><blockquote><p><b>answer</b></p></blockquote></blockquote><blockquote><p><b>item</b></p><p><b>linkId</b>: father-middle-name</p><p><b>text</b>: Middle</p><blockquote><p><b>answer</b></p></blockquote></blockquote><blockquote><p><b>item</b></p><p><b>linkId</b>: father-last-name</p><p><b>text</b>: Last</p><blockquote><p><b>answer</b></p></blockquote></blockquote></blockquote><blockquote><p><b>item</b></p><p><b>linkId</b>: father-dob</p><p><b>text</b>: What the father's date of birth?</p><h3>Answers</h3><table class="grid"><tr><td style="display: none">-</td><td><b>Value[x]</b></td></tr><tr><td style="display: none">*</td><td>1983-09-27</td></tr></table></blockquote><blockquote><p><b>item</b></p><p><b>linkId</b>: father-birthplace</p><p><b>text</b>: In what State, U.S. territory, or foreign country was the father born? Please specify one of the following:</p><blockquote><p><b>item</b></p><p><b>linkId</b>: father-birthplace-state</p><p><b>text</b>: State</p><blockquote><p><b>answer</b></p></blockquote></blockquote></blockquote><blockquote><p><b>item</b></p><p><b>linkId</b>: father-education</p><p><b>text</b>: What is the highest level of schooling that the father will have completed at the time of delivery? (Check the box that best describes his education. If he is currently enrolled, check the box that indicates the previous grade or highest degree received).</p><h3>Answers</h3><table class="grid"><tr><td style="display: none">-</td><td><b>Value[x]</b></td></tr><tr><td style="display: none">*</td><td>Doctoral or post graduate education (Details: http://terminology.hl7.org/CodeSystem/v3-EducationLevel code POSTG = 'Doctoral or post graduate education', stated as 'Doctoral or post graduate education')</td></tr></table></blockquote><blockquote><p><b>item</b></p><p><b>linkId</b>: father-ethnicity</p><h3>Answers</h3><table class="grid"><tr><td style="display: none">-</td><td><b>Value[x]</b></td></tr><tr><td style="display: none">*</td><td>false</td></tr></table></blockquote><blockquote><p><b>item</b></p><p><b>linkId</b>: father-race</p><blockquote><p><b>item</b></p><p><b>linkId</b>: father-race-white</p><p><b>text</b>: White</p><blockquote><p><b>answer</b></p></blockquote></blockquote></blockquote><blockquote><p><b>item</b></p><p><b>linkId</b>: parents-ssn</p><p><b>text</b>: Furnishing parent(s) Social Security Number(s) (SSNs) is required by Federal Law, 42 USC 405(c) (section 205(c) of the Social Security Act). The number(s) will be made available to the (State Social Services Agency) to assist with child support enforcement activities and to the Internal Revenue Service for the purpose of determining Earned Income Tax Credit compliance.</p><blockquote><p><b>item</b></p><p><b>linkId</b>: mother-ssn</p><p><b>text</b>: What is your Social Security Number?</p><blockquote><p><b>answer</b></p></blockquote></blockquote><blockquote><p><b>item</b></p><p><b>linkId</b>: father-ssn</p><p><b>text</b>: What is the father’s Social Security Number? If you are not married, and if a paternity acknowledgment has not been completed, leave this item blank.</p><blockquote><p><b>answer</b></p></blockquote></blockquote></blockquote><blockquote><p><b>item</b></p><p><b>linkId</b>: baby-ssn</p><p><b>text</b>: Do you want a Social Security Number issued for your baby? [If yes, please sign request below</p><h3>Answers</h3><table class="grid"><tr><td style="display: none">-</td><td><b>Value[x]</b></td></tr><tr><td style="display: none">*</td><td>false</td></tr></table></blockquote><blockquote><p><b>item</b></p><p><b>linkId</b>: informant-name</p><p><b>text</b>: If other than the mother, what is the name of the person providing information for this worksheet?</p><blockquote><p><b>item</b></p><p><b>linkId</b>: informant-first-name</p><p><b>text</b>: First</p><blockquote><p><b>answer</b></p></blockquote></blockquote><blockquote><p><b>item</b></p><p><b>linkId</b>: informant-last-name</p><p><b>text</b>: Last</p><blockquote><p><b>answer</b></p></blockquote></blockquote></blockquote><blockquote><p><b>item</b></p><p><b>linkId</b>: informant-relationship</p><p><b>text</b>: What is your relationship to the baby's mother?</p><h3>Answers</h3><table class="grid"><tr><td style="display: none">-</td><td><b>Value[x]</b></td></tr><tr><td style="display: none">*</td><td>Other relative (Details: http://hl7.org/fhir/us/bfdr/CodeSystem/CodeSystem-local-bfdr-codes code rel_otherrelative = 'Other relative', stated as 'Other relative')</td></tr></table></blockquote></div>
        </text>
        <questionnaire value="http://hl7.org/fhir/us/bfdr/Questionnaire/Questionnaire-mothers-live-birth"/>
        <status value="completed"/>
        <subject>
          <reference value="Patient/patient-child-babyg-quinn"/>
          <display value="BabyG Quinn"/>
        </subject>
        <source>
          <reference value="Patient/patient-mother-jada-ann-quinn"/>
          <display value="Patient - Mother (Jada Ann Quinn)"/>
        </source>
        <item>
          <linkId value="mother-current-legal-name"/>
          <text value="What is your current legal name?"/>
          <item>
            <linkId value="mother-first-name"/>
            <text value="First"/>
            <answer>
              <valueString value="Jada"/>
            </answer>
          </item>
          <item>
            <linkId value="mother-middle-name"/>
            <text value="Middle"/>
            <answer>
              <valueString value="Ann"/>
            </answer>
          </item>
          <item>
            <linkId value="mother-last-name"/>
            <text value="Last"/>
            <answer>
              <valueString value="Quinn"/>
            </answer>
          </item>
        </item>
        <item>
          <linkId value="child-name"/>
          <text value="What will be your baby's legal name (as it should appear on the birth certificate)?"/>
          <item>
            <linkId value="child-first-name"/>
            <text value="First"/>
            <answer>
              <valueString value="Baby"/>
            </answer>
          </item>
          <item>
            <linkId value="child-middle-name"/>
            <text value="Middle"/>
            <answer>
              <valueString value="G"/>
            </answer>
          </item>
          <item>
            <linkId value="child-last-name"/>
            <text value="Last"/>
            <answer>
              <valueString value="Quinn"/>
            </answer>
          </item>
        </item>
        <item>
          <linkId value="mother-address"/>
          <text value="Where do you usually live - that is - where is your household/residence located?"/>
          <item>
            <linkId value="mother-nbr-street"/>
            <text value="Complete number and street (do not enter rural route numbers)"/>
            <answer>
              <valueString value="1875 West Morton Avenue"/>
            </answer>
          </item>
          <item>
            <linkId value="mother-city"/>
            <text value="City, Town, or Location"/>
            <answer>
              <valueString value="Salt Lake City"/>
            </answer>
          </item>
          <item>
            <linkId value="mother-county"/>
            <text value="County"/>
            <answer>
              <valueString value="Salt Lake"/>
            </answer>
          </item>
          <item>
            <linkId value="mother-state"/>
            <text value="State (or U.S. Territory, Canadian Province)"/>
            <answer>
              <valueString value="UT"/>
            </answer>
          </item>
          <item>
            <linkId value="mother-zip"/>
            <text value="Zip Code"/>
            <answer>
              <valueString value="84116"/>
            </answer>
          </item>
        </item>
        <item>
          <linkId value="inside-city-limits"/>
          <text value="Is this household inside city limits (inside the incorporated limits of the city, town, or location where you live)?"/>
          <answer>
            <valueCoding>
              <system value="http://terminology.hl7.org/CodeSystem/v2-0136"/>
              <code value="Y"/>
              <display value="Yes"/>
            </valueCoding>
          </answer>
        </item>
        <item>
          <linkId value="mother-mail"/>
          <text value="What is your mailing address"/>
          <item>
            <linkId value="mother-mail-same"/>
            <text value="Same as residence [Go to next question]"/>
            <answer>
              <valueBoolean value="false"/>
            </answer>
          </item>
          <item>
            <linkId value="mother-mail-nbr-street"/>
            <text value="Complete number and street"/>
            <answer>
              <valueString value="1848 South 1300 East"/>
            </answer>
          </item>
          <item>
            <linkId value="mother-mail-city"/>
            <text value="City, Town, or Location"/>
            <answer>
              <valueString value="Salt Lake City"/>
            </answer>
          </item>
          <item>
            <linkId value="mother-mail-state"/>
            <text value="State (or U.S. Territory, Canadian Province)"/>
            <answer>
              <valueString value="UT"/>
            </answer>
          </item>
          <item>
            <linkId value="mother-mail-zip"/>
            <text value="Zip Code"/>
            <answer>
              <valueString value="84401"/>
            </answer>
          </item>
        </item>
        <item>
          <linkId value="mother-dob"/>
          <text value="What is your date of birth?"/>
          <answer>
            <valueDate value="1985-01-15"/>
          </answer>
        </item>
        <item>
          <linkId value="mother-birthplace"/>
          <text value="In what State, U.S. territory, or foreign country were you born? Please specify one of the following:"/>
          <item>
            <linkId value="mother-birthplace-state"/>
            <text value="State"/>
            <answer>
              <valueString value="UT"/>
            </answer>
          </item>
        </item>
        <item>
          <linkId value="mother-education"/>
          <text value="What is the highest level of schooling that you have completed at the time of delivery? (Check the box that best describes your education. If you are currently enrolled, check the box that indicates the previous grade or highest degree received)."/>
          <answer>
            <valueCoding>
              <system value="http://terminology.hl7.org/CodeSystem/v3-EducationLevel"/>
              <code value="POSTG"/>
              <display value="Doctoral or post graduate education"/>
            </valueCoding>
          </answer>
        </item>
        <item>
          <linkId value="mother-ethnicity"/>
          <answer>
            <valueBoolean value="false"/>
          </answer>
        </item>
        <item>
          <linkId value="mother-race"/>
          <item>
            <linkId value="mother-race-white"/>
            <text value="White"/>
            <answer>
              <valueBoolean value="true"/>
            </answer>
          </item>
          <item>
            <linkId value="mother-race-aian"/>
            <text value="American Indian or Alaskan Native"/>
            <answer>
              <valueBoolean value="true"/>
            </answer>
          </item>
        </item>
        <item>
          <linkId value="receive-wic"/>
          <text value="Did you receive WIC (Women, Infants and Children) food for yourself during this pregnancy?"/>
          <answer>
            <valueCoding>
              <system value="http://terminology.hl7.org/CodeSystem/v2-0136"/>
              <code value="Y"/>
              <display value="Yes"/>
            </valueCoding>
          </answer>
        </item>
        <item>
          <linkId value="infertility-treatment"/>
          <text value="Did this pregnancy result from infertility treatment? (If yes, please answer 12a and 12b)"/>
          <answer>
            <valueBoolean value="true"/>
            <item>
              <linkId value="drugs-ai-ii"/>
              <text value="If yes, did this pregnancy result from fertility-enhancing drugs, artificial insemination, or intrauterine insemination?"/>
              <answer>
                <valueBoolean value="false"/>
              </answer>
            </item>
            <item>
              <linkId value="art-ivf-gift"/>
              <text value="If yes, did this pregnancy result from assisted reproductive technology (e.g., in-vitro fertilization (IVF), gamete intrafallopian transfer (GIFT))?"/>
              <answer>
                <valueBoolean value="true"/>
              </answer>
            </item>
          </answer>
        </item>
        <item>
          <linkId value="mothers-height"/>
          <text value="What is your height?"/>
          <item>
            <linkId value="mothers-height-feet"/>
            <text value="Feet"/>
            <answer>
              <valueQuantity>
                <value value="5"/>
                <unit value="ft"/>
                <system value="http://unitsofmeasure.org"/>
                <code value="ft"/>
              </valueQuantity>
            </answer>
          </item>
          <item>
            <linkId value="mothers-height-inches"/>
            <text value="Inches"/>
            <answer>
              <valueQuantity>
                <value value="7"/>
                <unit value="[in_i]"/>
                <system value="http://unitsofmeasure.org"/>
                <code value="[in_i]"/>
              </valueQuantity>
            </answer>
          </item>
        </item>
        <item>
          <linkId value="mothers-prepregnancy-weight"/>
          <answer>
            <valueQuantity>
              <value value="145"/>
              <unit value="[lb_av]"/>
              <system value="http://unitsofmeasure.org"/>
              <code value="[lb_av]"/>
            </valueQuantity>
          </answer>
        </item>
        <item>
          <linkId value="mothers-smoking"/>
          <text value="How many cigarettes OR packs of cigarettes did you smoke on an average day during each of the following time periods? If you NEVER smoked, enter zero for each time period."/>
          <item>
            <linkId value="mothers-smoking-3-months-prior"/>
            <text value="Three months before pregnancy"/>
            <item>
              <linkId value="mothers-smoking-3-months-prior-cig"/>
              <text value="# of cigarettes*"/>
              <answer>
                <valueInteger value="0"/>
              </answer>
            </item>
            <item>
              <linkId value="mothers-smoking-3-months-prior-pck"/>
              <text value="# of packs"/>
              <answer>
                <valueInteger value="1"/>
              </answer>
            </item>
          </item>
          <item>
            <linkId value="mothers-smoking-trimester-1"/>
            <text value="First three months of pregnancy"/>
            <item>
              <linkId value="mothers-smoking-trimester-1-cig"/>
              <text value="# of cigarettes*"/>
              <answer>
                <valueInteger value="3"/>
              </answer>
            </item>
            <item>
              <linkId value="mothers-smoking-trimester-1-pck"/>
              <text value="# of packs"/>
              <answer>
                <valueInteger value="0"/>
              </answer>
            </item>
          </item>
          <item>
            <linkId value="mothers-smoking-trimester-2"/>
            <text value="Second three months of pregnancy"/>
            <item>
              <linkId value="mothers-smoking-trimester-2-cig"/>
              <text value="# of cigarettes*"/>
              <answer>
                <valueInteger value="1"/>
              </answer>
            </item>
            <item>
              <linkId value="mothers-smoking-trimester-2-pck"/>
              <text value="# of packs"/>
              <answer>
                <valueInteger value="0"/>
              </answer>
            </item>
          </item>
          <item>
            <linkId value="mothers-smoking-trimester-3"/>
            <text value="Third trimester of pregnancy"/>
            <item>
              <linkId value="mothers-smoking-trimester-3-cig"/>
              <text value="# of cigarettes*"/>
              <answer>
                <valueInteger value="0"/>
              </answer>
            </item>
            <item>
              <linkId value="mothers-smoking-trimester-3-pck"/>
              <text value="# of packs"/>
              <answer>
                <valueInteger value="0"/>
              </answer>
            </item>
          </item>
        </item>
        <item>
          <linkId value="mother-prior-name"/>
          <text value="What name did you use prior to your first marriage?"/>
          <item>
            <linkId value="mother-prior-first-name"/>
            <text value="First"/>
            <answer>
              <valueString value="Jada"/>
            </answer>
          </item>
          <item>
            <linkId value="mother-prior-middle-name"/>
            <text value="Middle"/>
            <answer>
              <valueString value="Ann"/>
            </answer>
          </item>
          <item>
            <linkId value="mother-prior-last-name"/>
            <text value="Last"/>
            <answer>
              <valueString value="King"/>
            </answer>
          </item>
        </item>
        <item>
          <linkId value="married-conception"/>
          <text value="Were you married at the time you conceived this child, at the time of birth, or at any time between conception and giving birth? [If yes, please go to question 19; If no, please see below]"/>
          <answer>
            <valueBoolean value="true"/>
          </answer>
        </item>
        <item>
          <linkId value="father-current-legal-name"/>
          <text value="What is the current legal name of your baby's father?"/>
          <item>
            <linkId value="father-first-name"/>
            <text value="First"/>
            <answer>
              <valueString value="James"/>
            </answer>
          </item>
          <item>
            <linkId value="father-middle-name"/>
            <text value="Middle"/>
            <answer>
              <valueString value="Brandon"/>
            </answer>
          </item>
          <item>
            <linkId value="father-last-name"/>
            <text value="Last"/>
            <answer>
              <valueString value="Quinn"/>
            </answer>
          </item>
        </item>
        <item>
          <linkId value="father-dob"/>
          <text value="What the father's date of birth?"/>
          <answer>
            <valueDate value="1983-09-27"/>
          </answer>
        </item>
        <item>
          <linkId value="father-birthplace"/>
          <text value="In what State, U.S. territory, or foreign country was the father born? Please specify one of the following:"/>
          <item>
            <linkId value="father-birthplace-state"/>
            <text value="State"/>
            <answer>
              <valueString value="NY"/>
            </answer>
          </item>
        </item>
        <item>
          <linkId value="father-education"/>
          <text value="What is the highest level of schooling that the father will have completed at the time of delivery? (Check the box that best describes his education. If he is currently enrolled, check the box that indicates the previous grade or highest degree received)."/>
          <answer>
            <valueCoding>
              <system value="http://terminology.hl7.org/CodeSystem/v3-EducationLevel"/>
              <code value="POSTG"/>
              <display value="Doctoral or post graduate education"/>
            </valueCoding>
          </answer>
        </item>
        <item>
          <linkId value="father-ethnicity"/>
          <answer>
            <valueBoolean value="false"/>
          </answer>
        </item>
        <item>
          <linkId value="father-race"/>
          <item>
            <linkId value="father-race-white"/>
            <text value="White"/>
            <answer>
              <valueBoolean value="true"/>
            </answer>
          </item>
        </item>
        <item>
          <linkId value="parents-ssn"/>
          <text value="Furnishing parent(s) Social Security Number(s) (SSNs) is required by Federal Law, 42 USC 405(c) (section 205(c) of the Social Security Act). The number(s) will be made available to the (State Social Services Agency) to assist with child support enforcement activities and to the Internal Revenue Service for the purpose of determining Earned Income Tax Credit compliance."/>
          <item>
            <linkId value="mother-ssn"/>
            <text value="What is your Social Security Number?"/>
            <answer>
              <valueString value="132-22-5986"/>
            </answer>
          </item>
          <item>
            <linkId value="father-ssn"/>
            <text value="What is the father’s Social Security Number? If you are not married, and if a paternity acknowledgment has not been completed, leave this item blank."/>
            <answer>
              <valueString value="132-22-5987"/>
            </answer>
          </item>
        </item>
        <item>
          <linkId value="baby-ssn"/>
          <text value="Do you want a Social Security Number issued for your baby? [If yes, please sign request below"/>
          <answer>
            <valueBoolean value="false"/>
          </answer>
        </item>
        <item>
          <linkId value="informant-name"/>
          <text value="If other than the mother, what is the name of the person providing information for this worksheet?"/>
          <item>
            <linkId value="informant-first-name"/>
            <text value="First"/>
            <answer>
              <valueString value="Jane"/>
            </answer>
          </item>
          <item>
            <linkId value="informant-last-name"/>
            <text value="Last"/>
            <answer>
              <valueString value="King"/>
            </answer>
          </item>
        </item>
        <item>
          <linkId value="informant-relationship"/>
          <text value="What is your relationship to the baby's mother?"/>
          <answer>
            <valueCoding>
              <system value="http://hl7.org/fhir/us/bfdr/CodeSystem/CodeSystem-local-bfdr-codes"/>
              <code value="rel_otherrelative"/>
              <display value="Other relative"/>
            </valueCoding>
          </answer>
        </item>
      </QuestionnaireResponse>
    </resource>
  </entry>
  <entry>
    <fullUrl value="http://www.example.org/fhir/Location/location-east-hospital"/>
    <resource>
      <Location>
        <id value="location-east-hospital"/>
        <meta>
          <profile value="http://hl7.org/fhir/us/bfdr/StructureDefinition/Location-bfdr"/>
        </meta>
        <text>
          <status value="generated"/><div xmlns="http://www.w3.org/1999/xhtml"><p><b>Generated Narrative: Location</b><a name="location-east-hospital"> </a></p><div style="display: inline-block; background-color: #d9e0e7; padding: 6px; margin: 4px; border: 1px solid #8da1b4; border-radius: 5px; line-height: 60%"><p style="margin-bottom: 0px">Resource Location &quot;location-east-hospital&quot; </p><p style="margin-bottom: 0px">Profile: <a href="StructureDefinition-Location-bfdr.html">Birth and Fetal Death Location</a></p></div><p><b>status</b>: active</p><p><b>name</b>: East Hospital</p><p><b>type</b>: Hospital <span style="background: LightGoldenRodYellow; margin: 4px; border: 1px solid khaki"> (<a href="http://terminology.hl7.org/5.0.0/CodeSystem-v3-RoleCode.html">RoleCode</a>#HOSP)</span>, Transfer-to Location <span style="background: LightGoldenRodYellow; margin: 4px; border: 1px solid khaki"> (<a href="CodeSystem-CodeSystem-local-bfdr-codes.html">Local BFDR Codes</a>#loc_transfer-to)</span></p></div>
        </text>
        <status value="active"/>
        <name value="East Hospital"/>
        <type>
          <coding>
            <system value="http://terminology.hl7.org/CodeSystem/v3-RoleCode"/>
            <code value="HOSP"/>
            <display value="Hospital"/>
          </coding>
        </type>
        <type>
          <coding>
            <system value="http://hl7.org/fhir/us/bfdr/CodeSystem/CodeSystem-local-bfdr-codes"/>
            <code value="loc_transfer-to"/>
            <display value="Transfer-to Location"/>
          </coding>
        </type>
      </Location>
    </resource>
  </entry>
  <entry>
    <fullUrl value="http://www.example.org/fhir/Location/location-south-hospital"/>
    <resource>
      <Location>
        <id value="location-south-hospital"/>
        <meta>
          <profile value="http://hl7.org/fhir/us/bfdr/StructureDefinition/Location-bfdr"/>
        </meta>
        <text>
          <status value="generated"/><div xmlns="http://www.w3.org/1999/xhtml"><p><b>Generated Narrative: Location</b><a name="location-south-hospital"> </a></p><div style="display: inline-block; background-color: #d9e0e7; padding: 6px; margin: 4px; border: 1px solid #8da1b4; border-radius: 5px; line-height: 60%"><p style="margin-bottom: 0px">Resource Location &quot;location-south-hospital&quot; </p><p style="margin-bottom: 0px">Profile: <a href="StructureDefinition-Location-bfdr.html">Birth and Fetal Death Location</a></p></div><p><b>identifier</b>: id: <a href="http://terminology.hl7.org/5.0.0/NamingSystem-npi.html">#</a>116441967701</p><p><b>status</b>: active</p><p><b>name</b>: South Hospital</p><p><b>type</b>: Hospital <span style="background: LightGoldenRodYellow; margin: 4px; border: 1px solid khaki"> (<a href="http://terminology.hl7.org/5.0.0/CodeSystem-v3-RoleCode.html">RoleCode</a>#HOSP)</span>, Birth Location <span style="background: LightGoldenRodYellow; margin: 4px; border: 1px solid khaki"> (<a href="CodeSystem-CodeSystem-local-bfdr-codes.html">Local BFDR Codes</a>#loc_birth)</span></p><p><b>address</b>: 2100 North Ave Salt Lake City UT 84116 US </p><h3>Positions</h3><table class="grid"><tr><td style="display: none">-</td><td><b>Longitude</b></td><td><b>Latitude</b></td></tr><tr><td style="display: none">*</td><td>40.8</td><td>111.9</td></tr></table><p><b>managingOrganization</b>: <a href="#Organization_organization-south-hospital">See above (Organization/organization-south-hospital: Organization - South Hospital)</a></p></div>
        </text>
        <identifier>
          <extension url="http://hl7.org/fhir/us/vr-common-library/StructureDefinition/AuxiliaryStateIdentifier1">
            <valueString value="UT1234567"/>
          </extension>
          <system value="http://hl7.org/fhir/sid/us-npi"/>
          <value value="116441967701"/>
        </identifier>
        <status value="active"/>
        <name value="South Hospital"/>
        <type>
          <coding>
            <system value="http://terminology.hl7.org/CodeSystem/v3-RoleCode"/>
            <code value="HOSP"/>
            <display value="Hospital"/>
          </coding>
        </type>
        <type>
          <coding>
            <system value="http://hl7.org/fhir/us/bfdr/CodeSystem/CodeSystem-local-bfdr-codes"/>
            <code value="loc_birth"/>
            <display value="Birth Location"/>
          </coding>
        </type>
        <address>
          <line value="2100 North Ave"/>
          <city value="Salt Lake City"/>
          <district value="Made Up"/>
          <state value="UT"/>
          <postalCode value="84116"/>
          <country value="US"/>
        </address>
        <position>
          <longitude value="40.8"/>
          <latitude value="111.9"/>
        </position>
        <managingOrganization>
          <reference value="Organization/organization-south-hospital"/>
          <display value="Organization - South Hospital"/>
        </managingOrganization>
      </Location>
    </resource>
  </entry>
  <entry>
    <fullUrl value="http://www.example.org/fhir/Location/location-north-hospital"/>
    <resource>
      <Location>
        <id value="location-north-hospital"/>
        <meta>
          <profile value="http://hl7.org/fhir/us/bfdr/StructureDefinition/Location-bfdr"/>
        </meta>
        <text>
          <status value="generated"/><div xmlns="http://www.w3.org/1999/xhtml"><p><b>Generated Narrative: Location</b><a name="location-north-hospital"> </a></p><div style="display: inline-block; background-color: #d9e0e7; padding: 6px; margin: 4px; border: 1px solid #8da1b4; border-radius: 5px; line-height: 60%"><p style="margin-bottom: 0px">Resource Location &quot;location-north-hospital&quot; </p><p style="margin-bottom: 0px">Profile: <a href="StructureDefinition-Location-bfdr.html">Birth and Fetal Death Location</a></p></div><p><b>status</b>: active</p><p><b>name</b>: North Hospital</p><p><b>type</b>: Hospital <span style="background: LightGoldenRodYellow; margin: 4px; border: 1px solid khaki"> (<a href="http://terminology.hl7.org/5.0.0/CodeSystem-v3-RoleCode.html">RoleCode</a>#HOSP)</span>, Transfer-from Location <span style="background: LightGoldenRodYellow; margin: 4px; border: 1px solid khaki"> (<a href="CodeSystem-CodeSystem-local-bfdr-codes.html">Local BFDR Codes</a>#loc_transfer-from)</span></p></div>
        </text>
        <status value="active"/>
        <name value="North Hospital"/>
        <type>
          <coding>
            <system value="http://terminology.hl7.org/CodeSystem/v3-RoleCode"/>
            <code value="HOSP"/>
            <display value="Hospital"/>
          </coding>
        </type>
        <type>
          <coding>
            <system value="http://hl7.org/fhir/us/bfdr/CodeSystem/CodeSystem-local-bfdr-codes"/>
            <code value="loc_transfer-from"/>
            <display value="Transfer-from Location"/>
          </coding>
        </type>
      </Location>
    </resource>
  </entry>
  <entry>
    <fullUrl value="http://www.example.org/fhir/Organization/organization-south-hospital"/>
    <resource>
      <Organization>
        <id value="organization-south-hospital"/>
        <text>
          <status value="generated"/><div xmlns="http://www.w3.org/1999/xhtml"><p><b>Generated Narrative: Organization</b><a name="organization-south-hospital"> </a></p><div style="display: inline-block; background-color: #d9e0e7; padding: 6px; margin: 4px; border: 1px solid #8da1b4; border-radius: 5px; line-height: 60%"><p style="margin-bottom: 0px">Resource Organization &quot;organization-south-hospital&quot; </p></div><p><b>identifier</b>: id: <a href="http://terminology.hl7.org/5.0.0/NamingSystem-npi.html">#</a>5555512</p><p><b>active</b>: true</p><p><b>type</b>: Hospital <span style="background: LightGoldenRodYellow; margin: 4px; border: 1px solid khaki"> (<a href="http://terminology.hl7.org/5.0.0/CodeSystem-v3-RoleCode.html">RoleCode</a>#HOSP)</span></p><p><b>name</b>: South Hospital</p><p><b>telecom</b>: <a href="tel:+1-555-555-1111">+1-555-555-1111</a>, <a href="mailto:mail@southhospital.com">mail@southhospital.com</a></p><p><b>address</b>: 2100 North Ave Salt Lake City UT 84116 US </p></div>
        </text>
        <identifier>
          <system value="http://hl7.org/fhir/sid/us-npi"/>
          <value value="5555512"/>
        </identifier>
        <active value="true"/>
        <type>
          <coding>
            <system value="http://terminology.hl7.org/CodeSystem/v3-RoleCode"/>
            <code value="HOSP"/>
            <display value="Hospital"/>
          </coding>
        </type>
        <name value="South Hospital"/>
        <telecom>
          <system value="phone"/>
          <value value="+1-555-555-1111"/>
        </telecom>
        <telecom>
          <system value="email"/>
          <value value="mail@southhospital.com"/>
        </telecom>
        <address>
          <line value="2100 North Ave"/>
          <city value="Salt Lake City"/>
          <state value="UT"/>
          <postalCode value="84116"/>
          <country value="US"/>
        </address>
      </Organization>
    </resource>
  </entry>
  <entry>
    <fullUrl value="http://www.example.org/fhir/Observation/observation-labor-trial-attempted-babyg-quinn"/>
    <resource>
      <Observation>
        <id value="observation-labor-trial-attempted-babyg-quinn"/>
        <meta>
          <profile value="http://hl7.org/fhir/us/bfdr/StructureDefinition/Observation-labor-trial-attempted"/>
        </meta>
        <text>
          <status value="generated"/><div xmlns="http://www.w3.org/1999/xhtml"><p><b>Generated Narrative: Observation</b><a name="observation-labor-trial-attempted-babyg-quinn"> </a></p><div style="display: inline-block; background-color: #d9e0e7; padding: 6px; margin: 4px; border: 1px solid #8da1b4; border-radius: 5px; line-height: 60%"><p style="margin-bottom: 0px">Resource Observation &quot;observation-labor-trial-attempted-babyg-quinn&quot; </p><p style="margin-bottom: 0px">Profile: <a href="StructureDefinition-Observation-labor-trial-attempted.html">Observation - Labor Trial Attempted</a></p></div><p><b>status</b>: final</p><p><b>code</b>: If cesarean, a trial of labor was attempted [US Standard Certificate of Live Birth] <span style="background: LightGoldenRodYellow; margin: 4px; border: 1px solid khaki"> (<a href="https://loinc.org/">LOINC</a>#73760-1)</span></p><p><b>subject</b>: <a href="#Patient_patient-mother-jada-ann-quinn">See above (Patient/patient-mother-jada-ann-quinn: Patient - Mother (Jada Ann Quinn))</a></p><p><b>focus</b>: <a href="#Patient_patient-child-babyg-quinn">See above (Patient/patient-child-babyg-quinn: BabyG Quinn)</a></p><p><b>effective</b>: 2019-12-02</p><p><b>performer</b>: <a href="#Practitioner_practitioner-vital-records-janet-seito">See above (Practitioner/practitioner-vital-records-janet-seito)</a></p><p><b>value</b>: true</p></div>
        </text>
        <status value="final"/>
        <code>
          <coding>
            <system value="http://loinc.org"/>
            <code value="73760-1"/>
            <display value="If cesarean, a trial of labor was attempted [US Standard Certificate of Live Birth]"/>
          </coding>
        </code>
        <subject>
          <reference value="Patient/patient-mother-jada-ann-quinn"/>
          <display value="Patient - Mother (Jada Ann Quinn)"/>
        </subject>
        <focus>
          <reference value="Patient/patient-child-babyg-quinn"/>
          <display value="BabyG Quinn"/>
        </focus>
        <effectiveDateTime value="2019-12-02"/>
        <performer>
          <reference value="Practitioner/practitioner-vital-records-janet-seito"/>
        </performer>
        <valueBoolean value="true"/>
      </Observation>
    </resource>
  </entry>
  <entry>
    <fullUrl value="http://www.example.org/fhir/Procedure/procedure-infertility-treatment-jada-ann-quinn"/>
    <resource>
      <Procedure>
        <id value="procedure-infertility-treatment-jada-ann-quinn"/>
        <meta>
          <profile value="http://hl7.org/fhir/us/bfdr/StructureDefinition/Procedure-infertility-treatment"/>
        </meta>
        <text>
          <status value="generated"/><div xmlns="http://www.w3.org/1999/xhtml"><p><b>Generated Narrative: Procedure</b><a name="procedure-infertility-treatment-jada-ann-quinn"> </a></p><div style="display: inline-block; background-color: #d9e0e7; padding: 6px; margin: 4px; border: 1px solid #8da1b4; border-radius: 5px; line-height: 60%"><p style="margin-bottom: 0px">Resource Procedure &quot;procedure-infertility-treatment-jada-ann-quinn&quot; </p><p style="margin-bottom: 0px">Profile: <a href="StructureDefinition-Procedure-infertility-treatment.html">Procedure - Infertility Treatment</a></p></div><p><b>status</b>: completed</p><p><b>code</b>: Fertility enhancing drug therapy (procedure) <span style="background: LightGoldenRodYellow; margin: 4px; border: 1px solid khaki"> (<a href="https://browser.ihtsdotools.org/">SNOMED CT</a>#445151000124101)</span></p><p><b>subject</b>: <a href="#Patient_patient-mother-jada-ann-quinn">See above (Patient/patient-mother-jada-ann-quinn: Patient - Mother (Jada Ann Quinn))</a></p><p><b>performed</b>: 2019-02-07 08:30:00-0700 --&gt; 2019-02-07 08:45:00-0700</p></div>
        </text>
        <status value="completed"/>
        <code>
          <coding>
            <system value="http://snomed.info/sct"/>
            <code value="445151000124101"/>
            <display value="Fertility enhancing drug therapy (procedure)"/>
          </coding>
        </code>
        <subject>
          <reference value="Patient/patient-mother-jada-ann-quinn"/>
          <display value="Patient - Mother (Jada Ann Quinn)"/>
        </subject>
        <performedPeriod>
          <start value="2019-02-07T08:30:00-07:00"/>
          <end value="2019-02-07T08:45:00-07:00"/>
        </performedPeriod>
      </Procedure>
    </resource>
  </entry>
  <entry>
    <fullUrl value="http://www.example.org/fhir/Procedure/procedure-artificial-insemination-jada-ann-quinn"/>
    <resource>
      <Procedure>
        <id value="procedure-artificial-insemination-jada-ann-quinn"/>
        <meta>
          <versionId value="1"/>
          <lastUpdated value="2023-06-21T01:45:22.509Z"/>
          <profile value="http://hl7.org/fhir/us/bfdr/StructureDefinition/Procedure-artificial-insemination"/>
        </meta>
        <text>
          <status value="generated"/><div xmlns="http://www.w3.org/1999/xhtml"><p><b>Generated Narrative: Procedure</b><a name="procedure-artificial-insemination-jada-ann-quinn"> </a></p><div style="display: inline-block; background-color: #d9e0e7; padding: 6px; margin: 4px; border: 1px solid #8da1b4; border-radius: 5px; line-height: 60%"><p style="margin-bottom: 0px">Resource Procedure &quot;procedure-artificial-insemination-jada-ann-quinn&quot; Version &quot;1&quot; Updated &quot;2023-06-21 01:45:22+0000&quot; </p><p style="margin-bottom: 0px">Profile: <a href="StructureDefinition-Procedure-artificial-insemination.html">Procedure - Artificial Insemination</a></p></div><p><b>status</b>: completed</p><p><b>code</b>: Artificial insemination (procedure) <span style="background: LightGoldenRodYellow; margin: 4px; border: 1px solid khaki"> (<a href="https://browser.ihtsdotools.org/">SNOMED CT</a>#58533008)</span></p><p><b>subject</b>: <a href="#Patient_patient-mother-jada-ann-quinn">See above (Patient/patient-mother-jada-ann-quinn: Patient - Mother (Jada Ann Quinn))</a></p><p><b>performed</b>: 2019-02-07 08:30:00-0700 --&gt; 2019-02-07 08:45:00-0700</p></div>
        </text>
        <status value="completed"/>
        <code>
          <coding>
            <system value="http://snomed.info/sct"/>
            <code value="58533008"/>
            <display value="Artificial insemination (procedure)"/>
          </coding>
        </code>
        <subject>
          <reference value="Patient/patient-mother-jada-ann-quinn"/>
          <display value="Patient - Mother (Jada Ann Quinn)"/>
        </subject>
        <performedPeriod>
          <start value="2019-02-07T08:30:00-07:00"/>
          <end value="2019-02-07T08:45:00-07:00"/>
        </performedPeriod>
      </Procedure>
    </resource>
  </entry>
  <entry>
    <fullUrl value="http://www.example.org/fhir/Observation/observation-antibiotics-during-labor-jada-ann-quinn"/>
    <resource>
      <Observation>
        <id value="observation-antibiotics-during-labor-jada-ann-quinn"/>
        <meta>
          <profile value="http://hl7.org/fhir/us/bfdr/StructureDefinition/Observation-antibiotics-administered-during-labor"/>
        </meta>
        <text>
          <status value="generated"/><div xmlns="http://www.w3.org/1999/xhtml"><p><b>Generated Narrative: Observation</b><a name="observation-antibiotics-during-labor-jada-ann-quinn"> </a></p><div style="display: inline-block; background-color: #d9e0e7; padding: 6px; margin: 4px; border: 1px solid #8da1b4; border-radius: 5px; line-height: 60%"><p style="margin-bottom: 0px">Resource Observation &quot;observation-antibiotics-during-labor-jada-ann-quinn&quot; </p><p style="margin-bottom: 0px">Profile: <a href="StructureDefinition-Observation-antibiotics-administered-during-labor.html">Observation - Antibiotics Administered During Labor</a></p></div><p><b>status</b>: final</p><p><b>code</b>: Characteristics of labor and delivery <span style="background: LightGoldenRodYellow; margin: 4px; border: 1px solid khaki"> (<a href="https://loinc.org/">LOINC</a>#73813-8 &quot;Characteristics of labor and delivery [US Standard Certificate of Live Birth]&quot;)</span></p><p><b>subject</b>: <a href="#Patient_patient-mother-jada-ann-quinn">See above (Patient/patient-mother-jada-ann-quinn: Patient - Mother (Jada Ann Quinn))</a></p><p><b>focus</b>: <a href="#Patient_patient-child-babyg-quinn">See above (Patient/patient-child-babyg-quinn: BabyG Quinn)</a></p><p><b>effective</b>: 2019-12-02</p><p><b>performer</b>: <a href="#Practitioner_practitioner-vital-records-janet-seito">See above (Practitioner/practitioner-vital-records-janet-seito)</a></p><p><b>value</b>: Antibiotics received during labor <span style="background: LightGoldenRodYellow; margin: 4px; border: 1px solid khaki"> (<a href="https://browser.ihtsdotools.org/">SNOMED CT</a>#434691000124101 &quot;Antibacterial administered during labor&quot;)</span></p></div>
        </text>
        <status value="final"/>
        <code>
          <coding>
            <system value="http://loinc.org"/>
            <code value="73813-8"/>
            <display value="Characteristics of labor and delivery [US Standard Certificate of Live Birth]"/>
          </coding>
          <text value="Characteristics of labor and delivery"/>
        </code>
        <subject>
          <reference value="Patient/patient-mother-jada-ann-quinn"/>
          <display value="Patient - Mother (Jada Ann Quinn)"/>
        </subject>
        <focus>
          <reference value="Patient/patient-child-babyg-quinn"/>
          <display value="BabyG Quinn"/>
        </focus>
        <effectiveDateTime value="2019-12-02"/>
        <performer>
          <reference value="Practitioner/practitioner-vital-records-janet-seito"/>
        </performer>
        <valueCodeableConcept>
          <coding>
            <system value="http://snomed.info/sct"/>
            <code value="434691000124101"/>
            <display value="Antibacterial administered during labor"/>
          </coding>
          <text value="Antibiotics received during labor"/>
        </valueCodeableConcept>
      </Observation>
    </resource>
  </entry>
  <entry>
    <fullUrl value="http://www.example.org/fhir/Procedure/procedure-epidural-or-spinal-anesthesia-jada-ann-quinn"/>
    <resource>
      <Procedure>
        <id value="procedure-epidural-or-spinal-anesthesia-jada-ann-quinn"/>
        <meta>
          <profile value="http://hl7.org/fhir/us/bfdr/StructureDefinition/Procedure-epidural-or-spinal-anesthesia"/>
        </meta>
        <text>
          <status value="generated"/><div xmlns="http://www.w3.org/1999/xhtml"><p><b>Generated Narrative: Procedure</b><a name="procedure-epidural-or-spinal-anesthesia-jada-ann-quinn"> </a></p><div style="display: inline-block; background-color: #d9e0e7; padding: 6px; margin: 4px; border: 1px solid #8da1b4; border-radius: 5px; line-height: 60%"><p style="margin-bottom: 0px">Resource Procedure &quot;procedure-epidural-or-spinal-anesthesia-jada-ann-quinn&quot; </p><p style="margin-bottom: 0px">Profile: <a href="StructureDefinition-Procedure-epidural-or-spinal-anesthesia.html">Procedure - Epidural or Spinal Anesthesia</a></p></div><p><b>status</b>: completed</p><p><b>code</b>: Epidural anesthesia (procedure) <span style="background: LightGoldenRodYellow; margin: 4px; border: 1px solid khaki"> (<a href="https://browser.ihtsdotools.org/">SNOMED CT</a>#18946005)</span></p><p><b>subject</b>: <a href="#Patient_patient-mother-jada-ann-quinn">See above (Patient/patient-mother-jada-ann-quinn: Patient - Mother (Jada Ann Quinn))</a></p><p><b>performed</b>: 2019-02-07 08:30:00-0700 --&gt; 2019-02-07 08:45:00-0700</p></div>
        </text>
        <status value="completed"/>
        <code>
          <coding>
            <system value="http://snomed.info/sct"/>
            <code value="18946005"/>
            <display value="Epidural anesthesia (procedure)"/>
          </coding>
        </code>
        <subject>
          <reference value="Patient/patient-mother-jada-ann-quinn"/>
          <display value="Patient - Mother (Jada Ann Quinn)"/>
        </subject>
        <performedPeriod>
          <start value="2019-02-07T08:30:00-07:00"/>
          <end value="2019-02-07T08:45:00-07:00"/>
        </performedPeriod>
      </Procedure>
    </resource>
  </entry>
</Bundle>