<?xml version="1.0" encoding="UTF-8"?>

<Bundle xmlns="http://hl7.org/fhir">
  <id value="bundle-coded-race-and-ethnicity-baby-g-quinn"/>
  <meta>
    <profile value="http://hl7.org/fhir/us/bfdr/StructureDefinition/Bundle-document-demographic-coded-content"/>
  </meta>
  <identifier>
    <extension url="http://hl7.org/fhir/us/vr-common-library/StructureDefinition/CertificateNumber">
      <valueString value="15075"/>
    </extension>
    <extension url="http://hl7.org/fhir/us/vr-common-library/StructureDefinition/AuxiliaryStateIdentifier1">
      <valueString value="444455555"/>
    </extension>
    <system value="http://hl7.org/fhir/us/vr-common-library/CodeSystem/codesystem-ije-vr"/>
    <value value="2019NJ15075"/>
  </identifier>
  <type value="document"/>
  <timestamp value="2019-10-15T08:51:14.637+00:00"/>
  <entry>
    <fullUrl value="http://www.example.org/fhir/Composition/composition-coded-race-and-ethnicity-baby-g-quinn"/>
    <resource>
      <Composition>
        <id value="composition-coded-race-and-ethnicity-baby-g-quinn"/>
        <meta>
          <profile value="http://hl7.org/fhir/us/bfdr/StructureDefinition/Composition-coded-race-and-ethnicity"/>
        </meta>
        <text>
          <status value="generated"/><div xmlns="http://www.w3.org/1999/xhtml"><p><b>Generated Narrative: Composition</b><a name="composition-coded-race-and-ethnicity-baby-g-quinn"> </a></p><div style="display: inline-block; background-color: #d9e0e7; padding: 6px; margin: 4px; border: 1px solid #8da1b4; border-radius: 5px; line-height: 60%"><p style="margin-bottom: 0px">Resource Composition &quot;composition-coded-race-and-ethnicity-baby-g-quinn&quot; </p><p style="margin-bottom: 0px">Profile: <a href="StructureDefinition-Composition-coded-race-and-ethnicity.html">Composition - Coded Race and Ethnicity</a></p></div><p><b>status</b>: final</p><p><b>type</b>: Race and ethnicity information Document <span style="background: LightGoldenRodYellow; margin: 4px; border: 1px solid khaki"> (<a href="https://loinc.org/">LOINC</a>#86805-9)</span></p><p><b>date</b>: 2019-01-09</p><p><b>author</b>: <span>: National Center for Health Statistics</span></p><p><b>title</b>: Coded Race and Ethnicity</p></div>
        </text>
        <status value="final"/>
        <type>
          <coding>
            <system value="http://loinc.org"/>
            <code value="86805-9"/>
            <display value="Race and ethnicity information Document"/>
          </coding>
        </type>
        <subject>
          <display value="Patient - Child (Baby G Quinn)"/>
        </subject>
        <date value="2019-01-09"/>
        <author>
          <display value="National Center for Health Statistics"/>
        </author>
        <title value="Coded Race and Ethnicity"/>
        <section>
          <title value="Mother's Coded Race and Ethnicity"/>
          <code>
            <coding>
              <system value="http://terminology.hl7.org/CodeSystem/v3-RoleCode"/>
              <code value="MTH"/>
            </coding>
          </code>
          <focus>
            <display value="patient-mother-jada-ann-quinn"/>
          </focus>
          <entry>
            <reference value="Observation/observation-input-race-and-ethnicity-mother"/>
          </entry>
          <entry>
            <reference value="Observation/observation-coded-race-and-ethnicity-mother"/>
          </entry>
        </section>
        <section>
          <title value="Father's Coded Race and Ethnicity"/>
          <code>
            <coding>
              <system value="http://terminology.hl7.org/CodeSystem/v3-RoleCode"/>
              <code value="NFTH"/>
            </coding>
          </code>
          <focus>
            <display value="relatedperson-father-natural-james-brandon-quinn"/>
          </focus>
          <entry>
            <reference value="Observation/observation-input-race-and-ethnicity-father"/>
          </entry>
          <entry>
            <reference value="Observation/observation-coded-race-and-ethnicity-father"/>
          </entry>
        </section>
      </Composition>
    </resource>
  </entry>
  <entry>
    <fullUrl value="http://www.example.org/fhir/Observation/observation-input-race-and-ethnicity-mother"/>
    <resource>
      <Observation>
        <id value="observation-input-race-and-ethnicity-mother"/>
        <meta>
          <profile value="http://hl7.org/fhir/us/vr-common-library/StructureDefinition/input-race-and-ethnicity-vr"/>
        </meta>
        <text>
          <status value="generated"/><div xmlns="http://www.w3.org/1999/xhtml"><p><b>Generated Narrative: Observation</b><a name="observation-input-race-and-ethnicity-mother"> </a></p><div style="display: inline-block; background-color: #d9e0e7; padding: 6px; margin: 4px; border: 1px solid #8da1b4; border-radius: 5px; line-height: 60%"><p style="margin-bottom: 0px">Resource Observation &quot;observation-input-race-and-ethnicity-mother&quot; </p><p style="margin-bottom: 0px">Profile: <a href="https://build.fhir.org/ig/HL7/vr-common-library//StructureDefinition-input-race-and-ethnicity-vr.html">Observation - Input Race and Ethnicity Vital Records</a></p></div><p><b>status</b>: final</p><p><b>code</b>: Mother Input Race and Ethnicity <span style="background: LightGoldenRodYellow; margin: 4px; border: 1px solid khaki"> (<a href="https://build.fhir.org/ig/HL7/vr-common-library//CodeSystem-CodeSystem-local-observation-codes-vr.html">Local Observation Codes Vital Records</a>#inputraceandethnicityMother)</span></p><p><b>subject</b>: <span>: EBRS-generated - mother</span></p><blockquote><p><b>component</b></p><p><b>code</b>: White <span style="background: LightGoldenRodYellow; margin: 4px; border: 1px solid khaki"> (<a href="https://build.fhir.org/ig/HL7/vr-common-library//CodeSystem-codesystem-vr-component.html">Local Component Codes</a>#White)</span></p><p><b>value</b>: true</p></blockquote><blockquote><p><b>component</b></p><p><b>code</b>: Black Or African American <span style="background: LightGoldenRodYellow; margin: 4px; border: 1px solid khaki"> (<a href="https://build.fhir.org/ig/HL7/vr-common-library//CodeSystem-codesystem-vr-component.html">Local Component Codes</a>#BlackOrAfricanAmerican)</span></p><p><b>value</b>: false</p></blockquote><blockquote><p><b>component</b></p><p><b>code</b>: American Indian Or Alaska Native <span style="background: LightGoldenRodYellow; margin: 4px; border: 1px solid khaki"> (<a href="https://build.fhir.org/ig/HL7/vr-common-library//CodeSystem-codesystem-vr-component.html">Local Component Codes</a>#AmericanIndianOrAlaskanNative)</span></p><p><b>value</b>: true</p></blockquote><blockquote><p><b>component</b></p><p><b>code</b>: Asian Indian <span style="background: LightGoldenRodYellow; margin: 4px; border: 1px solid khaki"> (<a href="https://build.fhir.org/ig/HL7/vr-common-library//CodeSystem-codesystem-vr-component.html">Local Component Codes</a>#AsianIndian)</span></p><p><b>value</b>: false</p></blockquote><blockquote><p><b>component</b></p><p><b>code</b>: Chinese <span style="background: LightGoldenRodYellow; margin: 4px; border: 1px solid khaki"> (<a href="https://build.fhir.org/ig/HL7/vr-common-library//CodeSystem-codesystem-vr-component.html">Local Component Codes</a>#Chinese)</span></p><p><b>value</b>: false</p></blockquote><blockquote><p><b>component</b></p><p><b>code</b>: Filipino <span style="background: LightGoldenRodYellow; margin: 4px; border: 1px solid khaki"> (<a href="https://build.fhir.org/ig/HL7/vr-common-library//CodeSystem-codesystem-vr-component.html">Local Component Codes</a>#Filipino)</span></p><p><b>value</b>: false</p></blockquote><blockquote><p><b>component</b></p><p><b>code</b>: Japanese <span style="background: LightGoldenRodYellow; margin: 4px; border: 1px solid khaki"> (<a href="https://build.fhir.org/ig/HL7/vr-common-library//CodeSystem-codesystem-vr-component.html">Local Component Codes</a>#Japanese)</span></p><p><b>value</b>: false</p></blockquote><blockquote><p><b>component</b></p><p><b>code</b>: Korean <span style="background: LightGoldenRodYellow; margin: 4px; border: 1px solid khaki"> (<a href="https://build.fhir.org/ig/HL7/vr-common-library//CodeSystem-codesystem-vr-component.html">Local Component Codes</a>#Korean)</span></p><p><b>value</b>: false</p></blockquote><blockquote><p><b>component</b></p><p><b>code</b>: Vietnamese <span style="background: LightGoldenRodYellow; margin: 4px; border: 1px solid khaki"> (<a href="https://build.fhir.org/ig/HL7/vr-common-library//CodeSystem-codesystem-vr-component.html">Local Component Codes</a>#Vietnamese)</span></p><p><b>value</b>: false</p></blockquote><blockquote><p><b>component</b></p><p><b>code</b>: Other Asian <span style="background: LightGoldenRodYellow; margin: 4px; border: 1px solid khaki"> (<a href="https://build.fhir.org/ig/HL7/vr-common-library//CodeSystem-codesystem-vr-component.html">Local Component Codes</a>#OtherAsian)</span></p><p><b>value</b>: true</p></blockquote><blockquote><p><b>component</b></p><p><b>code</b>: Native Hawaiian <span style="background: LightGoldenRodYellow; margin: 4px; border: 1px solid khaki"> (<a href="https://build.fhir.org/ig/HL7/vr-common-library//CodeSystem-codesystem-vr-component.html">Local Component Codes</a>#NativeHawaiian)</span></p><p><b>value</b>: false</p></blockquote><blockquote><p><b>component</b></p><p><b>code</b>: Guamanian Or Chamorro <span style="background: LightGoldenRodYellow; margin: 4px; border: 1px solid khaki"> (<a href="https://build.fhir.org/ig/HL7/vr-common-library//CodeSystem-codesystem-vr-component.html">Local Component Codes</a>#GuamanianOrChamorro)</span></p><p><b>value</b>: false</p></blockquote><blockquote><p><b>component</b></p><p><b>code</b>: Samoan <span style="background: LightGoldenRodYellow; margin: 4px; border: 1px solid khaki"> (<a href="https://build.fhir.org/ig/HL7/vr-common-library//CodeSystem-codesystem-vr-component.html">Local Component Codes</a>#Samoan)</span></p><p><b>value</b>: false</p></blockquote><blockquote><p><b>component</b></p><p><b>code</b>: Other Pacific Islander <span style="background: LightGoldenRodYellow; margin: 4px; border: 1px solid khaki"> (<a href="https://build.fhir.org/ig/HL7/vr-common-library//CodeSystem-codesystem-vr-component.html">Local Component Codes</a>#OtherPacificIslander)</span></p><p><b>value</b>: false</p></blockquote><blockquote><p><b>component</b></p><p><b>code</b>: Other Race <span style="background: LightGoldenRodYellow; margin: 4px; border: 1px solid khaki"> (<a href="https://build.fhir.org/ig/HL7/vr-common-library//CodeSystem-codesystem-vr-component.html">Local Component Codes</a>#OtherRace)</span></p><p><b>value</b>: false</p></blockquote><blockquote><p><b>component</b></p><p><b>code</b>: First Other Asian Literal <span style="background: LightGoldenRodYellow; margin: 4px; border: 1px solid khaki"> (<a href="https://build.fhir.org/ig/HL7/vr-common-library//CodeSystem-codesystem-vr-component.html">Local Component Codes</a>#FirstOtherAsianLiteral)</span></p><p><b>value</b>: Malaysian</p></blockquote><blockquote><p><b>component</b></p><p><b>code</b>: First American Indian Or Alaska Native Literal <span style="background: LightGoldenRodYellow; margin: 4px; border: 1px solid khaki"> (<a href="https://build.fhir.org/ig/HL7/vr-common-library//CodeSystem-codesystem-vr-component.html">Local Component Codes</a>#FirstAmericanIndianOrAlaskanNativeLiteral)</span></p><p><b>value</b>: Arikara</p></blockquote><blockquote><p><b>component</b></p><p><b>code</b>: Hispanic Mexican <span style="background: LightGoldenRodYellow; margin: 4px; border: 1px solid khaki"> (<a href="https://build.fhir.org/ig/HL7/vr-common-library//CodeSystem-codesystem-vr-component.html">Local Component Codes</a>#HispanicMexican)</span></p><p><b>value</b>: Yes <span style="background: LightGoldenRodYellow; margin: 4px; border: 1px solid khaki"> (<a href="http://hl7.org/fhir/R4/v2/0136/index.html">v2 Y/N Indicator</a>#Y)</span></p></blockquote><blockquote><p><b>component</b></p><p><b>code</b>: Hispanic Cuban <span style="background: LightGoldenRodYellow; margin: 4px; border: 1px solid khaki"> (<a href="https://build.fhir.org/ig/HL7/vr-common-library//CodeSystem-codesystem-vr-component.html">Local Component Codes</a>#HispanicCuban)</span></p><p><b>value</b>: Yes <span style="background: LightGoldenRodYellow; margin: 4px; border: 1px solid khaki"> (<a href="http://hl7.org/fhir/R4/v2/0136/index.html">v2 Y/N Indicator</a>#Y)</span></p></blockquote><blockquote><p><b>component</b></p><p><b>code</b>: Hispanic Puerto Rican <span style="background: LightGoldenRodYellow; margin: 4px; border: 1px solid khaki"> (<a href="https://build.fhir.org/ig/HL7/vr-common-library//CodeSystem-codesystem-vr-component.html">Local Component Codes</a>#HispanicPuertoRican)</span></p><p><b>value</b>: Yes <span style="background: LightGoldenRodYellow; margin: 4px; border: 1px solid khaki"> (<a href="http://hl7.org/fhir/R4/v2/0136/index.html">v2 Y/N Indicator</a>#Y)</span></p></blockquote><blockquote><p><b>component</b></p><p><b>code</b>: Hispanic Other <span style="background: LightGoldenRodYellow; margin: 4px; border: 1px solid khaki"> (<a href="https://build.fhir.org/ig/HL7/vr-common-library//CodeSystem-codesystem-vr-component.html">Local Component Codes</a>#HispanicOther)</span></p><p><b>value</b>: No <span style="background: LightGoldenRodYellow; margin: 4px; border: 1px solid khaki"> (<a href="http://hl7.org/fhir/R4/v2/0136/index.html">v2 Y/N Indicator</a>#N)</span></p></blockquote></div>
        </text>
        <status value="final"/>
        <code>
          <coding>
            <system value="http://hl7.org/fhir/us/vr-common-library/CodeSystem/CodeSystem-local-observation-codes-vr"/>
            <code value="inputraceandethnicityMother"/>
          </coding>
        </code>
        <subject>
          <display value="EBRS-generated - mother"/>
        </subject>
        <component>
          <code>
            <coding>
              <system value="http://hl7.org/fhir/us/vr-common-library/CodeSystem/codesystem-vr-component"/>
              <code value="White"/>
            </coding>
          </code>
          <valueBoolean value="true"/>
        </component>
        <component>
          <code>
            <coding>
              <system value="http://hl7.org/fhir/us/vr-common-library/CodeSystem/codesystem-vr-component"/>
              <code value="BlackOrAfricanAmerican"/>
            </coding>
          </code>
          <valueBoolean value="false"/>
        </component>
        <component>
          <code>
            <coding>
              <system value="http://hl7.org/fhir/us/vr-common-library/CodeSystem/codesystem-vr-component"/>
              <code value="AmericanIndianOrAlaskanNative"/>
            </coding>
          </code>
          <valueBoolean value="true"/>
        </component>
        <component>
          <code>
            <coding>
              <system value="http://hl7.org/fhir/us/vr-common-library/CodeSystem/codesystem-vr-component"/>
              <code value="AsianIndian"/>
            </coding>
          </code>
          <valueBoolean value="false"/>
        </component>
        <component>
          <code>
            <coding>
              <system value="http://hl7.org/fhir/us/vr-common-library/CodeSystem/codesystem-vr-component"/>
              <code value="Chinese"/>
            </coding>
          </code>
          <valueBoolean value="false"/>
        </component>
        <component>
          <code>
            <coding>
              <system value="http://hl7.org/fhir/us/vr-common-library/CodeSystem/codesystem-vr-component"/>
              <code value="Filipino"/>
            </coding>
          </code>
          <valueBoolean value="false"/>
        </component>
        <component>
          <code>
            <coding>
              <system value="http://hl7.org/fhir/us/vr-common-library/CodeSystem/codesystem-vr-component"/>
              <code value="Japanese"/>
            </coding>
          </code>
          <valueBoolean value="false"/>
        </component>
        <component>
          <code>
            <coding>
              <system value="http://hl7.org/fhir/us/vr-common-library/CodeSystem/codesystem-vr-component"/>
              <code value="Korean"/>
            </coding>
          </code>
          <valueBoolean value="false"/>
        </component>
        <component>
          <code>
            <coding>
              <system value="http://hl7.org/fhir/us/vr-common-library/CodeSystem/codesystem-vr-component"/>
              <code value="Vietnamese"/>
            </coding>
          </code>
          <valueBoolean value="false"/>
        </component>
        <component>
          <code>
            <coding>
              <system value="http://hl7.org/fhir/us/vr-common-library/CodeSystem/codesystem-vr-component"/>
              <code value="OtherAsian"/>
            </coding>
          </code>
          <valueBoolean value="true"/>
        </component>
        <component>
          <code>
            <coding>
              <system value="http://hl7.org/fhir/us/vr-common-library/CodeSystem/codesystem-vr-component"/>
              <code value="NativeHawaiian"/>
            </coding>
          </code>
          <valueBoolean value="false"/>
        </component>
        <component>
          <code>
            <coding>
              <system value="http://hl7.org/fhir/us/vr-common-library/CodeSystem/codesystem-vr-component"/>
              <code value="GuamanianOrChamorro"/>
            </coding>
          </code>
          <valueBoolean value="false"/>
        </component>
        <component>
          <code>
            <coding>
              <system value="http://hl7.org/fhir/us/vr-common-library/CodeSystem/codesystem-vr-component"/>
              <code value="Samoan"/>
            </coding>
          </code>
          <valueBoolean value="false"/>
        </component>
        <component>
          <code>
            <coding>
              <system value="http://hl7.org/fhir/us/vr-common-library/CodeSystem/codesystem-vr-component"/>
              <code value="OtherPacificIslander"/>
            </coding>
          </code>
          <valueBoolean value="false"/>
        </component>
        <component>
          <code>
            <coding>
              <system value="http://hl7.org/fhir/us/vr-common-library/CodeSystem/codesystem-vr-component"/>
              <code value="OtherRace"/>
            </coding>
          </code>
          <valueBoolean value="false"/>
        </component>
        <component>
          <code>
            <coding>
              <system value="http://hl7.org/fhir/us/vr-common-library/CodeSystem/codesystem-vr-component"/>
              <code value="FirstOtherAsianLiteral"/>
            </coding>
          </code>
          <valueString value="Malaysian"/>
        </component>
        <component>
          <code>
            <coding>
              <system value="http://hl7.org/fhir/us/vr-common-library/CodeSystem/codesystem-vr-component"/>
              <code value="FirstAmericanIndianOrAlaskanNativeLiteral"/>
            </coding>
          </code>
          <valueString value="Arikara"/>
        </component>
        <component>
          <code>
            <coding>
              <system value="http://hl7.org/fhir/us/vr-common-library/CodeSystem/codesystem-vr-component"/>
              <code value="HispanicMexican"/>
            </coding>
          </code>
          <valueCodeableConcept>
            <coding>
              <system value="http://terminology.hl7.org/CodeSystem/v2-0136"/>
              <code value="Y"/>
              <display value="Yes"/>
            </coding>
          </valueCodeableConcept>
        </component>
        <component>
          <code>
            <coding>
              <system value="http://hl7.org/fhir/us/vr-common-library/CodeSystem/codesystem-vr-component"/>
              <code value="HispanicCuban"/>
            </coding>
          </code>
          <valueCodeableConcept>
            <coding>
              <system value="http://terminology.hl7.org/CodeSystem/v2-0136"/>
              <code value="Y"/>
              <display value="Yes"/>
            </coding>
          </valueCodeableConcept>
        </component>
        <component>
          <code>
            <coding>
              <system value="http://hl7.org/fhir/us/vr-common-library/CodeSystem/codesystem-vr-component"/>
              <code value="HispanicPuertoRican"/>
            </coding>
          </code>
          <valueCodeableConcept>
            <coding>
              <system value="http://terminology.hl7.org/CodeSystem/v2-0136"/>
              <code value="Y"/>
              <display value="Yes"/>
            </coding>
          </valueCodeableConcept>
        </component>
        <component>
          <code>
            <coding>
              <system value="http://hl7.org/fhir/us/vr-common-library/CodeSystem/codesystem-vr-component"/>
              <code value="HispanicOther"/>
            </coding>
          </code>
          <valueCodeableConcept>
            <coding>
              <system value="http://terminology.hl7.org/CodeSystem/v2-0136"/>
              <code value="N"/>
              <display value="No"/>
            </coding>
          </valueCodeableConcept>
        </component>
      </Observation>
    </resource>
  </entry>
  <entry>
    <fullUrl value="http://www.example.org/fhir/Observation/observation-input-race-and-ethnicity-father"/>
    <resource>
      <Observation>
        <id value="observation-input-race-and-ethnicity-father"/>
        <meta>
          <profile value="http://hl7.org/fhir/us/vr-common-library/StructureDefinition/input-race-and-ethnicity-vr"/>
        </meta>
        <text>
          <status value="generated"/><div xmlns="http://www.w3.org/1999/xhtml"><p><b>Generated Narrative: Observation</b><a name="observation-input-race-and-ethnicity-father"> </a></p><div style="display: inline-block; background-color: #d9e0e7; padding: 6px; margin: 4px; border: 1px solid #8da1b4; border-radius: 5px; line-height: 60%"><p style="margin-bottom: 0px">Resource Observation &quot;observation-input-race-and-ethnicity-father&quot; </p><p style="margin-bottom: 0px">Profile: <a href="https://build.fhir.org/ig/HL7/vr-common-library//StructureDefinition-input-race-and-ethnicity-vr.html">Observation - Input Race and Ethnicity Vital Records</a></p></div><p><b>status</b>: final</p><p><b>code</b>: Father Input Race and Ethnicity <span style="background: LightGoldenRodYellow; margin: 4px; border: 1px solid khaki"> (<a href="https://build.fhir.org/ig/HL7/vr-common-library//CodeSystem-CodeSystem-local-observation-codes-vr.html">Local Observation Codes Vital Records</a>#inputraceandethnicityFather)</span></p><p><b>subject</b>: <span>: EBRS-generated - father</span></p><blockquote><p><b>component</b></p><p><b>code</b>: White <span style="background: LightGoldenRodYellow; margin: 4px; border: 1px solid khaki"> (<a href="https://build.fhir.org/ig/HL7/vr-common-library//CodeSystem-codesystem-vr-component.html">Local Component Codes</a>#White)</span></p><p><b>value</b>: true</p></blockquote><blockquote><p><b>component</b></p><p><b>code</b>: Black Or African American <span style="background: LightGoldenRodYellow; margin: 4px; border: 1px solid khaki"> (<a href="https://build.fhir.org/ig/HL7/vr-common-library//CodeSystem-codesystem-vr-component.html">Local Component Codes</a>#BlackOrAfricanAmerican)</span></p><p><b>value</b>: false</p></blockquote><blockquote><p><b>component</b></p><p><b>code</b>: American Indian Or Alaska Native <span style="background: LightGoldenRodYellow; margin: 4px; border: 1px solid khaki"> (<a href="https://build.fhir.org/ig/HL7/vr-common-library//CodeSystem-codesystem-vr-component.html">Local Component Codes</a>#AmericanIndianOrAlaskanNative)</span></p><p><b>value</b>: true</p></blockquote><blockquote><p><b>component</b></p><p><b>code</b>: Asian Indian <span style="background: LightGoldenRodYellow; margin: 4px; border: 1px solid khaki"> (<a href="https://build.fhir.org/ig/HL7/vr-common-library//CodeSystem-codesystem-vr-component.html">Local Component Codes</a>#AsianIndian)</span></p><p><b>value</b>: false</p></blockquote><blockquote><p><b>component</b></p><p><b>code</b>: Chinese <span style="background: LightGoldenRodYellow; margin: 4px; border: 1px solid khaki"> (<a href="https://build.fhir.org/ig/HL7/vr-common-library//CodeSystem-codesystem-vr-component.html">Local Component Codes</a>#Chinese)</span></p><p><b>value</b>: false</p></blockquote><blockquote><p><b>component</b></p><p><b>code</b>: Filipino <span style="background: LightGoldenRodYellow; margin: 4px; border: 1px solid khaki"> (<a href="https://build.fhir.org/ig/HL7/vr-common-library//CodeSystem-codesystem-vr-component.html">Local Component Codes</a>#Filipino)</span></p><p><b>value</b>: false</p></blockquote><blockquote><p><b>component</b></p><p><b>code</b>: Japanese <span style="background: LightGoldenRodYellow; margin: 4px; border: 1px solid khaki"> (<a href="https://build.fhir.org/ig/HL7/vr-common-library//CodeSystem-codesystem-vr-component.html">Local Component Codes</a>#Japanese)</span></p><p><b>value</b>: false</p></blockquote><blockquote><p><b>component</b></p><p><b>code</b>: Korean <span style="background: LightGoldenRodYellow; margin: 4px; border: 1px solid khaki"> (<a href="https://build.fhir.org/ig/HL7/vr-common-library//CodeSystem-codesystem-vr-component.html">Local Component Codes</a>#Korean)</span></p><p><b>value</b>: false</p></blockquote><blockquote><p><b>component</b></p><p><b>code</b>: Vietnamese <span style="background: LightGoldenRodYellow; margin: 4px; border: 1px solid khaki"> (<a href="https://build.fhir.org/ig/HL7/vr-common-library//CodeSystem-codesystem-vr-component.html">Local Component Codes</a>#Vietnamese)</span></p><p><b>value</b>: false</p></blockquote><blockquote><p><b>component</b></p><p><b>code</b>: Other Asian <span style="background: LightGoldenRodYellow; margin: 4px; border: 1px solid khaki"> (<a href="https://build.fhir.org/ig/HL7/vr-common-library//CodeSystem-codesystem-vr-component.html">Local Component Codes</a>#OtherAsian)</span></p><p><b>value</b>: true</p></blockquote><blockquote><p><b>component</b></p><p><b>code</b>: Native Hawaiian <span style="background: LightGoldenRodYellow; margin: 4px; border: 1px solid khaki"> (<a href="https://build.fhir.org/ig/HL7/vr-common-library//CodeSystem-codesystem-vr-component.html">Local Component Codes</a>#NativeHawaiian)</span></p><p><b>value</b>: false</p></blockquote><blockquote><p><b>component</b></p><p><b>code</b>: Guamanian Or Chamorro <span style="background: LightGoldenRodYellow; margin: 4px; border: 1px solid khaki"> (<a href="https://build.fhir.org/ig/HL7/vr-common-library//CodeSystem-codesystem-vr-component.html">Local Component Codes</a>#GuamanianOrChamorro)</span></p><p><b>value</b>: false</p></blockquote><blockquote><p><b>component</b></p><p><b>code</b>: Samoan <span style="background: LightGoldenRodYellow; margin: 4px; border: 1px solid khaki"> (<a href="https://build.fhir.org/ig/HL7/vr-common-library//CodeSystem-codesystem-vr-component.html">Local Component Codes</a>#Samoan)</span></p><p><b>value</b>: false</p></blockquote><blockquote><p><b>component</b></p><p><b>code</b>: Other Pacific Islander <span style="background: LightGoldenRodYellow; margin: 4px; border: 1px solid khaki"> (<a href="https://build.fhir.org/ig/HL7/vr-common-library//CodeSystem-codesystem-vr-component.html">Local Component Codes</a>#OtherPacificIslander)</span></p><p><b>value</b>: false</p></blockquote><blockquote><p><b>component</b></p><p><b>code</b>: Other Race <span style="background: LightGoldenRodYellow; margin: 4px; border: 1px solid khaki"> (<a href="https://build.fhir.org/ig/HL7/vr-common-library//CodeSystem-codesystem-vr-component.html">Local Component Codes</a>#OtherRace)</span></p><p><b>value</b>: false</p></blockquote><blockquote><p><b>component</b></p><p><b>code</b>: First Other Asian Literal <span style="background: LightGoldenRodYellow; margin: 4px; border: 1px solid khaki"> (<a href="https://build.fhir.org/ig/HL7/vr-common-library//CodeSystem-codesystem-vr-component.html">Local Component Codes</a>#FirstOtherAsianLiteral)</span></p><p><b>value</b>: Malaysian</p></blockquote><blockquote><p><b>component</b></p><p><b>code</b>: First American Indian Or Alaska Native Literal <span style="background: LightGoldenRodYellow; margin: 4px; border: 1px solid khaki"> (<a href="https://build.fhir.org/ig/HL7/vr-common-library//CodeSystem-codesystem-vr-component.html">Local Component Codes</a>#FirstAmericanIndianOrAlaskanNativeLiteral)</span></p><p><b>value</b>: Arikara</p></blockquote><blockquote><p><b>component</b></p><p><b>code</b>: Hispanic Mexican <span style="background: LightGoldenRodYellow; margin: 4px; border: 1px solid khaki"> (<a href="https://build.fhir.org/ig/HL7/vr-common-library//CodeSystem-codesystem-vr-component.html">Local Component Codes</a>#HispanicMexican)</span></p><p><b>value</b>: Yes <span style="background: LightGoldenRodYellow; margin: 4px; border: 1px solid khaki"> (<a href="http://hl7.org/fhir/R4/v2/0136/index.html">v2 Y/N Indicator</a>#Y)</span></p></blockquote><blockquote><p><b>component</b></p><p><b>code</b>: Hispanic Cuban <span style="background: LightGoldenRodYellow; margin: 4px; border: 1px solid khaki"> (<a href="https://build.fhir.org/ig/HL7/vr-common-library//CodeSystem-codesystem-vr-component.html">Local Component Codes</a>#HispanicCuban)</span></p><p><b>value</b>: Yes <span style="background: LightGoldenRodYellow; margin: 4px; border: 1px solid khaki"> (<a href="http://hl7.org/fhir/R4/v2/0136/index.html">v2 Y/N Indicator</a>#Y)</span></p></blockquote><blockquote><p><b>component</b></p><p><b>code</b>: Hispanic Puerto Rican <span style="background: LightGoldenRodYellow; margin: 4px; border: 1px solid khaki"> (<a href="https://build.fhir.org/ig/HL7/vr-common-library//CodeSystem-codesystem-vr-component.html">Local Component Codes</a>#HispanicPuertoRican)</span></p><p><b>value</b>: Yes <span style="background: LightGoldenRodYellow; margin: 4px; border: 1px solid khaki"> (<a href="http://hl7.org/fhir/R4/v2/0136/index.html">v2 Y/N Indicator</a>#Y)</span></p></blockquote><blockquote><p><b>component</b></p><p><b>code</b>: Hispanic Other <span style="background: LightGoldenRodYellow; margin: 4px; border: 1px solid khaki"> (<a href="https://build.fhir.org/ig/HL7/vr-common-library//CodeSystem-codesystem-vr-component.html">Local Component Codes</a>#HispanicOther)</span></p><p><b>value</b>: No <span style="background: LightGoldenRodYellow; margin: 4px; border: 1px solid khaki"> (<a href="http://hl7.org/fhir/R4/v2/0136/index.html">v2 Y/N Indicator</a>#N)</span></p></blockquote></div>
        </text>
        <status value="final"/>
        <code>
          <coding>
            <system value="http://hl7.org/fhir/us/vr-common-library/CodeSystem/CodeSystem-local-observation-codes-vr"/>
            <code value="inputraceandethnicityFather"/>
          </coding>
        </code>
        <subject>
          <display value="EBRS-generated - father"/>
        </subject>
        <component>
          <code>
            <coding>
              <system value="http://hl7.org/fhir/us/vr-common-library/CodeSystem/codesystem-vr-component"/>
              <code value="White"/>
            </coding>
          </code>
          <valueBoolean value="true"/>
        </component>
        <component>
          <code>
            <coding>
              <system value="http://hl7.org/fhir/us/vr-common-library/CodeSystem/codesystem-vr-component"/>
              <code value="BlackOrAfricanAmerican"/>
            </coding>
          </code>
          <valueBoolean value="false"/>
        </component>
        <component>
          <code>
            <coding>
              <system value="http://hl7.org/fhir/us/vr-common-library/CodeSystem/codesystem-vr-component"/>
              <code value="AmericanIndianOrAlaskanNative"/>
            </coding>
          </code>
          <valueBoolean value="true"/>
        </component>
        <component>
          <code>
            <coding>
              <system value="http://hl7.org/fhir/us/vr-common-library/CodeSystem/codesystem-vr-component"/>
              <code value="AsianIndian"/>
            </coding>
          </code>
          <valueBoolean value="false"/>
        </component>
        <component>
          <code>
            <coding>
              <system value="http://hl7.org/fhir/us/vr-common-library/CodeSystem/codesystem-vr-component"/>
              <code value="Chinese"/>
            </coding>
          </code>
          <valueBoolean value="false"/>
        </component>
        <component>
          <code>
            <coding>
              <system value="http://hl7.org/fhir/us/vr-common-library/CodeSystem/codesystem-vr-component"/>
              <code value="Filipino"/>
            </coding>
          </code>
          <valueBoolean value="false"/>
        </component>
        <component>
          <code>
            <coding>
              <system value="http://hl7.org/fhir/us/vr-common-library/CodeSystem/codesystem-vr-component"/>
              <code value="Japanese"/>
            </coding>
          </code>
          <valueBoolean value="false"/>
        </component>
        <component>
          <code>
            <coding>
              <system value="http://hl7.org/fhir/us/vr-common-library/CodeSystem/codesystem-vr-component"/>
              <code value="Korean"/>
            </coding>
          </code>
          <valueBoolean value="false"/>
        </component>
        <component>
          <code>
            <coding>
              <system value="http://hl7.org/fhir/us/vr-common-library/CodeSystem/codesystem-vr-component"/>
              <code value="Vietnamese"/>
            </coding>
          </code>
          <valueBoolean value="false"/>
        </component>
        <component>
          <code>
            <coding>
              <system value="http://hl7.org/fhir/us/vr-common-library/CodeSystem/codesystem-vr-component"/>
              <code value="OtherAsian"/>
            </coding>
          </code>
          <valueBoolean value="true"/>
        </component>
        <component>
          <code>
            <coding>
              <system value="http://hl7.org/fhir/us/vr-common-library/CodeSystem/codesystem-vr-component"/>
              <code value="NativeHawaiian"/>
            </coding>
          </code>
          <valueBoolean value="false"/>
        </component>
        <component>
          <code>
            <coding>
              <system value="http://hl7.org/fhir/us/vr-common-library/CodeSystem/codesystem-vr-component"/>
              <code value="GuamanianOrChamorro"/>
            </coding>
          </code>
          <valueBoolean value="false"/>
        </component>
        <component>
          <code>
            <coding>
              <system value="http://hl7.org/fhir/us/vr-common-library/CodeSystem/codesystem-vr-component"/>
              <code value="Samoan"/>
            </coding>
          </code>
          <valueBoolean value="false"/>
        </component>
        <component>
          <code>
            <coding>
              <system value="http://hl7.org/fhir/us/vr-common-library/CodeSystem/codesystem-vr-component"/>
              <code value="OtherPacificIslander"/>
            </coding>
          </code>
          <valueBoolean value="false"/>
        </component>
        <component>
          <code>
            <coding>
              <system value="http://hl7.org/fhir/us/vr-common-library/CodeSystem/codesystem-vr-component"/>
              <code value="OtherRace"/>
            </coding>
          </code>
          <valueBoolean value="false"/>
        </component>
        <component>
          <code>
            <coding>
              <system value="http://hl7.org/fhir/us/vr-common-library/CodeSystem/codesystem-vr-component"/>
              <code value="FirstOtherAsianLiteral"/>
            </coding>
          </code>
          <valueString value="Malaysian"/>
        </component>
        <component>
          <code>
            <coding>
              <system value="http://hl7.org/fhir/us/vr-common-library/CodeSystem/codesystem-vr-component"/>
              <code value="FirstAmericanIndianOrAlaskanNativeLiteral"/>
            </coding>
          </code>
          <valueString value="Arikara"/>
        </component>
        <component>
          <code>
            <coding>
              <system value="http://hl7.org/fhir/us/vr-common-library/CodeSystem/codesystem-vr-component"/>
              <code value="HispanicMexican"/>
            </coding>
          </code>
          <valueCodeableConcept>
            <coding>
              <system value="http://terminology.hl7.org/CodeSystem/v2-0136"/>
              <code value="Y"/>
              <display value="Yes"/>
            </coding>
          </valueCodeableConcept>
        </component>
        <component>
          <code>
            <coding>
              <system value="http://hl7.org/fhir/us/vr-common-library/CodeSystem/codesystem-vr-component"/>
              <code value="HispanicCuban"/>
            </coding>
          </code>
          <valueCodeableConcept>
            <coding>
              <system value="http://terminology.hl7.org/CodeSystem/v2-0136"/>
              <code value="Y"/>
              <display value="Yes"/>
            </coding>
          </valueCodeableConcept>
        </component>
        <component>
          <code>
            <coding>
              <system value="http://hl7.org/fhir/us/vr-common-library/CodeSystem/codesystem-vr-component"/>
              <code value="HispanicPuertoRican"/>
            </coding>
          </code>
          <valueCodeableConcept>
            <coding>
              <system value="http://terminology.hl7.org/CodeSystem/v2-0136"/>
              <code value="Y"/>
              <display value="Yes"/>
            </coding>
          </valueCodeableConcept>
        </component>
        <component>
          <code>
            <coding>
              <system value="http://hl7.org/fhir/us/vr-common-library/CodeSystem/codesystem-vr-component"/>
              <code value="HispanicOther"/>
            </coding>
          </code>
          <valueCodeableConcept>
            <coding>
              <system value="http://terminology.hl7.org/CodeSystem/v2-0136"/>
              <code value="N"/>
              <display value="No"/>
            </coding>
          </valueCodeableConcept>
        </component>
      </Observation>
    </resource>
  </entry>
  <entry>
    <fullUrl value="http://www.example.org/fhir/Observation/observation-coded-race-and-ethnicity-mother"/>
    <resource>
      <Observation>
        <id value="observation-coded-race-and-ethnicity-mother"/>
        <meta>
          <profile value="http://hl7.org/fhir/us/vr-common-library/StructureDefinition/coded-race-and-ethnicity-vr"/>
        </meta>
        <text>
          <status value="generated"/><div xmlns="http://www.w3.org/1999/xhtml"><p><b>Generated Narrative: Observation</b><a name="observation-coded-race-and-ethnicity-mother"> </a></p><div style="display: inline-block; background-color: #d9e0e7; padding: 6px; margin: 4px; border: 1px solid #8da1b4; border-radius: 5px; line-height: 60%"><p style="margin-bottom: 0px">Resource Observation &quot;observation-coded-race-and-ethnicity-mother&quot; </p><p style="margin-bottom: 0px">Profile: <a href="https://build.fhir.org/ig/HL7/vr-common-library//StructureDefinition-coded-race-and-ethnicity-vr.html">Observation - Coded Race and Ethnicity Vital Records</a></p></div><p><b>status</b>: final</p><p><b>code</b>: Mother Coded Race and Ethnicity <span style="background: LightGoldenRodYellow; margin: 4px; border: 1px solid khaki"> (<a href="https://build.fhir.org/ig/HL7/vr-common-library//CodeSystem-CodeSystem-local-observation-codes-vr.html">Local Observation Codes Vital Records</a>#codedraceandethnicityMother)</span></p><p><b>subject</b>: <span>: NCHS generated - mother</span></p><blockquote><p><b>component</b></p><p><b>code</b>: First Edited Race Code <span style="background: LightGoldenRodYellow; margin: 4px; border: 1px solid khaki"> (<a href="https://build.fhir.org/ig/HL7/vr-common-library//CodeSystem-codesystem-vr-component.html">Local Component Codes</a>#FirstEditedCode)</span></p><p><b>value</b>: White <span style="background: LightGoldenRodYellow; margin: 4px; border: 1px solid khaki"> (<a href="https://build.fhir.org/ig/HL7/vr-common-library//CodeSystem-CodeSystem-race-code-vr.html">Race Code Vital Records</a>#101)</span></p></blockquote><blockquote><p><b>component</b></p><p><b>code</b>: Second Edited Race Code <span style="background: LightGoldenRodYellow; margin: 4px; border: 1px solid khaki"> (<a href="https://build.fhir.org/ig/HL7/vr-common-library//CodeSystem-codesystem-vr-component.html">Local Component Codes</a>#SecondEditedCode)</span></p><p><b>value</b>: Israeli <span style="background: LightGoldenRodYellow; margin: 4px; border: 1px solid khaki"> (<a href="https://build.fhir.org/ig/HL7/vr-common-library//CodeSystem-CodeSystem-race-code-vr.html">Race Code Vital Records</a>#122)</span></p></blockquote><blockquote><p><b>component</b></p><p><b>code</b>: First Edited American Indian Race Code <span style="background: LightGoldenRodYellow; margin: 4px; border: 1px solid khaki"> (<a href="https://build.fhir.org/ig/HL7/vr-common-library//CodeSystem-codesystem-vr-component.html">Local Component Codes</a>#FirstAmericanIndianCode)</span></p><p><b>value</b>: Arikara <span style="background: LightGoldenRodYellow; margin: 4px; border: 1px solid khaki"> (<a href="https://build.fhir.org/ig/HL7/vr-common-library//CodeSystem-CodeSystem-race-code-vr.html">Race Code Vital Records</a>#A31)</span></p></blockquote><blockquote><p><b>component</b></p><p><b>code</b>: Race Recode 40 <span style="background: LightGoldenRodYellow; margin: 4px; border: 1px solid khaki"> (<a href="https://build.fhir.org/ig/HL7/vr-common-library//CodeSystem-codesystem-vr-component.html">Local Component Codes</a>#RaceRecode40)</span></p><p><b>value</b>: AIAN and Asian <span style="background: LightGoldenRodYellow; margin: 4px; border: 1px solid khaki"> (<a href="https://build.fhir.org/ig/HL7/vr-common-library//CodeSystem-CodeSystem-race-recode-40-vr.html">Race Recode 40 Vital Records</a>#20)</span></p></blockquote><blockquote><p><b>component</b></p><p><b>code</b>: Hispanic Code <span style="background: LightGoldenRodYellow; margin: 4px; border: 1px solid khaki"> (<a href="https://build.fhir.org/ig/HL7/vr-common-library//CodeSystem-codesystem-vr-component.html">Local Component Codes</a>#HispanicCode)</span></p><p><b>value</b>: Chilean <span style="background: LightGoldenRodYellow; margin: 4px; border: 1px solid khaki"> (<a href="https://build.fhir.org/ig/HL7/vr-common-library//CodeSystem-CodeSystem-hispanic-origin-vr.html">HispanicOrigin Vital Records</a>#233)</span></p></blockquote></div>
        </text>
        <status value="final"/>
        <code>
          <coding>
            <system value="http://hl7.org/fhir/us/vr-common-library/CodeSystem/CodeSystem-local-observation-codes-vr"/>
            <code value="codedraceandethnicityMother"/>
          </coding>
        </code>
        <subject>
          <display value="NCHS generated - mother"/>
        </subject>
        <component>
          <code>
            <coding>
              <system value="http://hl7.org/fhir/us/vr-common-library/CodeSystem/codesystem-vr-component"/>
              <code value="FirstEditedCode"/>
            </coding>
          </code>
          <valueCodeableConcept>
            <coding>
              <system value="http://hl7.org/fhir/us/vr-common-library/CodeSystem/CodeSystem-race-code-vr"/>
              <code value="101"/>
              <display value="White"/>
            </coding>
          </valueCodeableConcept>
        </component>
        <component>
          <code>
            <coding>
              <system value="http://hl7.org/fhir/us/vr-common-library/CodeSystem/codesystem-vr-component"/>
              <code value="SecondEditedCode"/>
            </coding>
          </code>
          <valueCodeableConcept>
            <coding>
              <system value="http://hl7.org/fhir/us/vr-common-library/CodeSystem/CodeSystem-race-code-vr"/>
              <code value="122"/>
              <display value="Israeli"/>
            </coding>
          </valueCodeableConcept>
        </component>
        <component>
          <code>
            <coding>
              <system value="http://hl7.org/fhir/us/vr-common-library/CodeSystem/codesystem-vr-component"/>
              <code value="FirstAmericanIndianCode"/>
            </coding>
          </code>
          <valueCodeableConcept>
            <coding>
              <system value="http://hl7.org/fhir/us/vr-common-library/CodeSystem/CodeSystem-race-code-vr"/>
              <code value="A31"/>
              <display value="Arikara"/>
            </coding>
          </valueCodeableConcept>
        </component>
        <component>
          <code>
            <coding>
              <system value="http://hl7.org/fhir/us/vr-common-library/CodeSystem/codesystem-vr-component"/>
              <code value="RaceRecode40"/>
            </coding>
          </code>
          <valueCodeableConcept>
            <coding>
              <system value="http://hl7.org/fhir/us/vr-common-library/CodeSystem/CodeSystem-race-recode-40-vr"/>
              <code value="20"/>
              <display value="AIAN and Asian"/>
            </coding>
          </valueCodeableConcept>
        </component>
        <component>
          <code>
            <coding>
              <system value="http://hl7.org/fhir/us/vr-common-library/CodeSystem/codesystem-vr-component"/>
              <code value="HispanicCode"/>
            </coding>
          </code>
          <valueCodeableConcept>
            <coding>
              <system value="http://hl7.org/fhir/us/vr-common-library/CodeSystem/CodeSystem-hispanic-origin-vr"/>
              <code value="233"/>
              <display value="Chilean"/>
            </coding>
          </valueCodeableConcept>
        </component>
      </Observation>
    </resource>
  </entry>
  <entry>
    <fullUrl value="http://www.example.org/fhir/Observation/observation-coded-race-and-ethnicity-father"/>
    <resource>
      <Observation>
        <id value="observation-coded-race-and-ethnicity-father"/>
        <meta>
          <profile value="http://hl7.org/fhir/us/vr-common-library/StructureDefinition/coded-race-and-ethnicity-vr"/>
        </meta>
        <text>
          <status value="generated"/><div xmlns="http://www.w3.org/1999/xhtml"><p><b>Generated Narrative: Observation</b><a name="observation-coded-race-and-ethnicity-father"> </a></p><div style="display: inline-block; background-color: #d9e0e7; padding: 6px; margin: 4px; border: 1px solid #8da1b4; border-radius: 5px; line-height: 60%"><p style="margin-bottom: 0px">Resource Observation &quot;observation-coded-race-and-ethnicity-father&quot; </p><p style="margin-bottom: 0px">Profile: <a href="https://build.fhir.org/ig/HL7/vr-common-library//StructureDefinition-coded-race-and-ethnicity-vr.html">Observation - Coded Race and Ethnicity Vital Records</a></p></div><p><b>status</b>: final</p><p><b>code</b>: Father Coded Race and Ethnicity <span style="background: LightGoldenRodYellow; margin: 4px; border: 1px solid khaki"> (<a href="https://build.fhir.org/ig/HL7/vr-common-library//CodeSystem-CodeSystem-local-observation-codes-vr.html">Local Observation Codes Vital Records</a>#codedraceandethnicityFather)</span></p><p><b>subject</b>: <span>: NCHS generated - father</span></p><blockquote><p><b>component</b></p><p><b>code</b>: First Edited Race Code <span style="background: LightGoldenRodYellow; margin: 4px; border: 1px solid khaki"> (<a href="https://build.fhir.org/ig/HL7/vr-common-library//CodeSystem-codesystem-vr-component.html">Local Component Codes</a>#FirstEditedCode)</span></p><p><b>value</b>: White <span style="background: LightGoldenRodYellow; margin: 4px; border: 1px solid khaki"> (<a href="https://build.fhir.org/ig/HL7/vr-common-library//CodeSystem-CodeSystem-race-code-vr.html">Race Code Vital Records</a>#101)</span></p></blockquote><blockquote><p><b>component</b></p><p><b>code</b>: Second Edited Race Code <span style="background: LightGoldenRodYellow; margin: 4px; border: 1px solid khaki"> (<a href="https://build.fhir.org/ig/HL7/vr-common-library//CodeSystem-codesystem-vr-component.html">Local Component Codes</a>#SecondEditedCode)</span></p><p><b>value</b>: Israeli <span style="background: LightGoldenRodYellow; margin: 4px; border: 1px solid khaki"> (<a href="https://build.fhir.org/ig/HL7/vr-common-library//CodeSystem-CodeSystem-race-code-vr.html">Race Code Vital Records</a>#122)</span></p></blockquote><blockquote><p><b>component</b></p><p><b>code</b>: First Edited American Indian Race Code <span style="background: LightGoldenRodYellow; margin: 4px; border: 1px solid khaki"> (<a href="https://build.fhir.org/ig/HL7/vr-common-library//CodeSystem-codesystem-vr-component.html">Local Component Codes</a>#FirstAmericanIndianCode)</span></p><p><b>value</b>: Arikara <span style="background: LightGoldenRodYellow; margin: 4px; border: 1px solid khaki"> (<a href="https://build.fhir.org/ig/HL7/vr-common-library//CodeSystem-CodeSystem-race-code-vr.html">Race Code Vital Records</a>#A31)</span></p></blockquote><blockquote><p><b>component</b></p><p><b>code</b>: Race Recode 40 <span style="background: LightGoldenRodYellow; margin: 4px; border: 1px solid khaki"> (<a href="https://build.fhir.org/ig/HL7/vr-common-library//CodeSystem-codesystem-vr-component.html">Local Component Codes</a>#RaceRecode40)</span></p><p><b>value</b>: AIAN and Asian <span style="background: LightGoldenRodYellow; margin: 4px; border: 1px solid khaki"> (<a href="https://build.fhir.org/ig/HL7/vr-common-library//CodeSystem-CodeSystem-race-recode-40-vr.html">Race Recode 40 Vital Records</a>#20)</span></p></blockquote><blockquote><p><b>component</b></p><p><b>code</b>: Hispanic Code <span style="background: LightGoldenRodYellow; margin: 4px; border: 1px solid khaki"> (<a href="https://build.fhir.org/ig/HL7/vr-common-library//CodeSystem-codesystem-vr-component.html">Local Component Codes</a>#HispanicCode)</span></p><p><b>value</b>: Chilean <span style="background: LightGoldenRodYellow; margin: 4px; border: 1px solid khaki"> (<a href="https://build.fhir.org/ig/HL7/vr-common-library//CodeSystem-CodeSystem-hispanic-origin-vr.html">HispanicOrigin Vital Records</a>#233)</span></p></blockquote></div>
        </text>
        <status value="final"/>
        <code>
          <coding>
            <system value="http://hl7.org/fhir/us/vr-common-library/CodeSystem/CodeSystem-local-observation-codes-vr"/>
            <code value="codedraceandethnicityFather"/>
          </coding>
        </code>
        <subject>
          <display value="NCHS generated - father"/>
        </subject>
        <component>
          <code>
            <coding>
              <system value="http://hl7.org/fhir/us/vr-common-library/CodeSystem/codesystem-vr-component"/>
              <code value="FirstEditedCode"/>
            </coding>
          </code>
          <valueCodeableConcept>
            <coding>
              <system value="http://hl7.org/fhir/us/vr-common-library/CodeSystem/CodeSystem-race-code-vr"/>
              <code value="101"/>
              <display value="White"/>
            </coding>
          </valueCodeableConcept>
        </component>
        <component>
          <code>
            <coding>
              <system value="http://hl7.org/fhir/us/vr-common-library/CodeSystem/codesystem-vr-component"/>
              <code value="SecondEditedCode"/>
            </coding>
          </code>
          <valueCodeableConcept>
            <coding>
              <system value="http://hl7.org/fhir/us/vr-common-library/CodeSystem/CodeSystem-race-code-vr"/>
              <code value="122"/>
              <display value="Israeli"/>
            </coding>
          </valueCodeableConcept>
        </component>
        <component>
          <code>
            <coding>
              <system value="http://hl7.org/fhir/us/vr-common-library/CodeSystem/codesystem-vr-component"/>
              <code value="FirstAmericanIndianCode"/>
            </coding>
          </code>
          <valueCodeableConcept>
            <coding>
              <system value="http://hl7.org/fhir/us/vr-common-library/CodeSystem/CodeSystem-race-code-vr"/>
              <code value="A31"/>
              <display value="Arikara"/>
            </coding>
          </valueCodeableConcept>
        </component>
        <component>
          <code>
            <coding>
              <system value="http://hl7.org/fhir/us/vr-common-library/CodeSystem/codesystem-vr-component"/>
              <code value="RaceRecode40"/>
            </coding>
          </code>
          <valueCodeableConcept>
            <coding>
              <system value="http://hl7.org/fhir/us/vr-common-library/CodeSystem/CodeSystem-race-recode-40-vr"/>
              <code value="20"/>
              <display value="AIAN and Asian"/>
            </coding>
          </valueCodeableConcept>
        </component>
        <component>
          <code>
            <coding>
              <system value="http://hl7.org/fhir/us/vr-common-library/CodeSystem/codesystem-vr-component"/>
              <code value="HispanicCode"/>
            </coding>
          </code>
          <valueCodeableConcept>
            <coding>
              <system value="http://hl7.org/fhir/us/vr-common-library/CodeSystem/CodeSystem-hispanic-origin-vr"/>
              <code value="233"/>
              <display value="Chilean"/>
            </coding>
          </valueCodeableConcept>
        </component>
      </Observation>
    </resource>
  </entry>
</Bundle>