{
  "resourceType" : "Bundle",
  "id" : "bundle-coded-race-and-ethnicity-baby-g-quinn",
  "meta" : {
    "profile" : ["http://hl7.org/fhir/us/bfdr/StructureDefinition/Bundle-document-demographic-coded-content"]
  },
  "identifier" : {
    "extension" : [{
      "url" : "http://hl7.org/fhir/us/vr-common-library/StructureDefinition/CertificateNumber",
      "valueString" : "15075"
    },
    {
      "url" : "http://hl7.org/fhir/us/vr-common-library/StructureDefinition/AuxiliaryStateIdentifier1",
      "valueString" : "444455555"
    }],
    "system" : "http://hl7.org/fhir/us/vr-common-library/CodeSystem/codesystem-ije-vr",
    "value" : "2019NJ15075"
  },
  "type" : "document",
  "timestamp" : "2019-10-15T08:51:14.637+00:00",
  "entry" : [{
    "fullUrl" : "http://www.example.org/fhir/Composition/composition-coded-race-and-ethnicity-baby-g-quinn",
    "resource" : {
      "resourceType" : "Composition",
      "id" : "composition-coded-race-and-ethnicity-baby-g-quinn",
      "meta" : {
        "profile" : ["http://hl7.org/fhir/us/bfdr/StructureDefinition/Composition-coded-race-and-ethnicity"]
      },
      "text" : {
        "status" : "generated",
        "div" : "<div xmlns=\"http://www.w3.org/1999/xhtml\"><p><b>Generated Narrative: Composition</b><a name=\"composition-coded-race-and-ethnicity-baby-g-quinn\"> </a></p><div style=\"display: inline-block; background-color: #d9e0e7; padding: 6px; margin: 4px; border: 1px solid #8da1b4; border-radius: 5px; line-height: 60%\"><p style=\"margin-bottom: 0px\">Resource Composition &quot;composition-coded-race-and-ethnicity-baby-g-quinn&quot; </p><p style=\"margin-bottom: 0px\">Profile: <a href=\"StructureDefinition-Composition-coded-race-and-ethnicity.html\">Composition - Coded Race and Ethnicity</a></p></div><p><b>status</b>: final</p><p><b>type</b>: Race and ethnicity information Document <span style=\"background: LightGoldenRodYellow; margin: 4px; border: 1px solid khaki\"> (<a href=\"https://loinc.org/\">LOINC</a>#86805-9)</span></p><p><b>date</b>: 2019-01-09</p><p><b>author</b>: <span>: National Center for Health Statistics</span></p><p><b>title</b>: Coded Race and Ethnicity</p></div>"
      },
      "status" : "final",
      "type" : {
        "coding" : [{
          "system" : "http://loinc.org",
          "code" : "86805-9",
          "display" : "Race and ethnicity information Document"
        }]
      },
      "subject" : {
        "display" : "Patient - Child (Baby G Quinn)"
      },
      "date" : "2019-01-09",
      "author" : [{
        "display" : "National Center for Health Statistics"
      }],
      "title" : "Coded Race and Ethnicity",
      "section" : [{
        "title" : "Mother's Coded Race and Ethnicity",
        "code" : {
          "coding" : [{
            "system" : "http://terminology.hl7.org/CodeSystem/v3-RoleCode",
            "code" : "MTH"
          }]
        },
        "focus" : {
          "display" : "patient-mother-jada-ann-quinn"
        },
        "entry" : [{
          "reference" : "Observation/observation-input-race-and-ethnicity-mother"
        },
        {
          "reference" : "Observation/observation-coded-race-and-ethnicity-mother"
        }]
      },
      {
        "title" : "Father's Coded Race and Ethnicity",
        "code" : {
          "coding" : [{
            "system" : "http://terminology.hl7.org/CodeSystem/v3-RoleCode",
            "code" : "NFTH"
          }]
        },
        "focus" : {
          "display" : "relatedperson-father-natural-james-brandon-quinn"
        },
        "entry" : [{
          "reference" : "Observation/observation-input-race-and-ethnicity-father"
        },
        {
          "reference" : "Observation/observation-coded-race-and-ethnicity-father"
        }]
      }]
    }
  },
  {
    "fullUrl" : "http://www.example.org/fhir/Observation/observation-input-race-and-ethnicity-mother",
    "resource" : {
      "resourceType" : "Observation",
      "id" : "observation-input-race-and-ethnicity-mother",
      "meta" : {
        "profile" : ["http://hl7.org/fhir/us/vr-common-library/StructureDefinition/input-race-and-ethnicity-vr"]
      },
      "text" : {
        "status" : "generated",
        "div" : "<div xmlns=\"http://www.w3.org/1999/xhtml\"><p><b>Generated Narrative: Observation</b><a name=\"observation-input-race-and-ethnicity-mother\"> </a></p><div style=\"display: inline-block; background-color: #d9e0e7; padding: 6px; margin: 4px; border: 1px solid #8da1b4; border-radius: 5px; line-height: 60%\"><p style=\"margin-bottom: 0px\">Resource Observation &quot;observation-input-race-and-ethnicity-mother&quot; </p><p style=\"margin-bottom: 0px\">Profile: <a href=\"https://build.fhir.org/ig/HL7/vr-common-library//StructureDefinition-input-race-and-ethnicity-vr.html\">Observation - Input Race and Ethnicity Vital Records</a></p></div><p><b>status</b>: final</p><p><b>code</b>: Mother Input Race and Ethnicity <span style=\"background: LightGoldenRodYellow; margin: 4px; border: 1px solid khaki\"> (<a href=\"https://build.fhir.org/ig/HL7/vr-common-library//CodeSystem-CodeSystem-local-observation-codes-vr.html\">Local Observation Codes Vital Records</a>#inputraceandethnicityMother)</span></p><p><b>subject</b>: <span>: EBRS-generated - mother</span></p><blockquote><p><b>component</b></p><p><b>code</b>: White <span style=\"background: LightGoldenRodYellow; margin: 4px; border: 1px solid khaki\"> (<a href=\"https://build.fhir.org/ig/HL7/vr-common-library//CodeSystem-codesystem-vr-component.html\">Local Component Codes</a>#White)</span></p><p><b>value</b>: true</p></blockquote><blockquote><p><b>component</b></p><p><b>code</b>: Black Or African American <span style=\"background: LightGoldenRodYellow; margin: 4px; border: 1px solid khaki\"> (<a href=\"https://build.fhir.org/ig/HL7/vr-common-library//CodeSystem-codesystem-vr-component.html\">Local Component Codes</a>#BlackOrAfricanAmerican)</span></p><p><b>value</b>: false</p></blockquote><blockquote><p><b>component</b></p><p><b>code</b>: American Indian Or Alaska Native <span style=\"background: LightGoldenRodYellow; margin: 4px; border: 1px solid khaki\"> (<a href=\"https://build.fhir.org/ig/HL7/vr-common-library//CodeSystem-codesystem-vr-component.html\">Local Component Codes</a>#AmericanIndianOrAlaskanNative)</span></p><p><b>value</b>: true</p></blockquote><blockquote><p><b>component</b></p><p><b>code</b>: Asian Indian <span style=\"background: LightGoldenRodYellow; margin: 4px; border: 1px solid khaki\"> (<a href=\"https://build.fhir.org/ig/HL7/vr-common-library//CodeSystem-codesystem-vr-component.html\">Local Component Codes</a>#AsianIndian)</span></p><p><b>value</b>: false</p></blockquote><blockquote><p><b>component</b></p><p><b>code</b>: Chinese <span style=\"background: LightGoldenRodYellow; margin: 4px; border: 1px solid khaki\"> (<a href=\"https://build.fhir.org/ig/HL7/vr-common-library//CodeSystem-codesystem-vr-component.html\">Local Component Codes</a>#Chinese)</span></p><p><b>value</b>: false</p></blockquote><blockquote><p><b>component</b></p><p><b>code</b>: Filipino <span style=\"background: LightGoldenRodYellow; margin: 4px; border: 1px solid khaki\"> (<a href=\"https://build.fhir.org/ig/HL7/vr-common-library//CodeSystem-codesystem-vr-component.html\">Local Component Codes</a>#Filipino)</span></p><p><b>value</b>: false</p></blockquote><blockquote><p><b>component</b></p><p><b>code</b>: Japanese <span style=\"background: LightGoldenRodYellow; margin: 4px; border: 1px solid khaki\"> (<a href=\"https://build.fhir.org/ig/HL7/vr-common-library//CodeSystem-codesystem-vr-component.html\">Local Component Codes</a>#Japanese)</span></p><p><b>value</b>: false</p></blockquote><blockquote><p><b>component</b></p><p><b>code</b>: Korean <span style=\"background: LightGoldenRodYellow; margin: 4px; border: 1px solid khaki\"> (<a href=\"https://build.fhir.org/ig/HL7/vr-common-library//CodeSystem-codesystem-vr-component.html\">Local Component Codes</a>#Korean)</span></p><p><b>value</b>: false</p></blockquote><blockquote><p><b>component</b></p><p><b>code</b>: Vietnamese <span style=\"background: LightGoldenRodYellow; margin: 4px; border: 1px solid khaki\"> (<a href=\"https://build.fhir.org/ig/HL7/vr-common-library//CodeSystem-codesystem-vr-component.html\">Local Component Codes</a>#Vietnamese)</span></p><p><b>value</b>: false</p></blockquote><blockquote><p><b>component</b></p><p><b>code</b>: Other Asian <span style=\"background: LightGoldenRodYellow; margin: 4px; border: 1px solid khaki\"> (<a href=\"https://build.fhir.org/ig/HL7/vr-common-library//CodeSystem-codesystem-vr-component.html\">Local Component Codes</a>#OtherAsian)</span></p><p><b>value</b>: true</p></blockquote><blockquote><p><b>component</b></p><p><b>code</b>: Native Hawaiian <span style=\"background: LightGoldenRodYellow; margin: 4px; border: 1px solid khaki\"> (<a href=\"https://build.fhir.org/ig/HL7/vr-common-library//CodeSystem-codesystem-vr-component.html\">Local Component Codes</a>#NativeHawaiian)</span></p><p><b>value</b>: false</p></blockquote><blockquote><p><b>component</b></p><p><b>code</b>: Guamanian Or Chamorro <span style=\"background: LightGoldenRodYellow; margin: 4px; border: 1px solid khaki\"> (<a href=\"https://build.fhir.org/ig/HL7/vr-common-library//CodeSystem-codesystem-vr-component.html\">Local Component Codes</a>#GuamanianOrChamorro)</span></p><p><b>value</b>: false</p></blockquote><blockquote><p><b>component</b></p><p><b>code</b>: Samoan <span style=\"background: LightGoldenRodYellow; margin: 4px; border: 1px solid khaki\"> (<a href=\"https://build.fhir.org/ig/HL7/vr-common-library//CodeSystem-codesystem-vr-component.html\">Local Component Codes</a>#Samoan)</span></p><p><b>value</b>: false</p></blockquote><blockquote><p><b>component</b></p><p><b>code</b>: Other Pacific Islander <span style=\"background: LightGoldenRodYellow; margin: 4px; border: 1px solid khaki\"> (<a href=\"https://build.fhir.org/ig/HL7/vr-common-library//CodeSystem-codesystem-vr-component.html\">Local Component Codes</a>#OtherPacificIslander)</span></p><p><b>value</b>: false</p></blockquote><blockquote><p><b>component</b></p><p><b>code</b>: Other Race <span style=\"background: LightGoldenRodYellow; margin: 4px; border: 1px solid khaki\"> (<a href=\"https://build.fhir.org/ig/HL7/vr-common-library//CodeSystem-codesystem-vr-component.html\">Local Component Codes</a>#OtherRace)</span></p><p><b>value</b>: false</p></blockquote><blockquote><p><b>component</b></p><p><b>code</b>: First Other Asian Literal <span style=\"background: LightGoldenRodYellow; margin: 4px; border: 1px solid khaki\"> (<a href=\"https://build.fhir.org/ig/HL7/vr-common-library//CodeSystem-codesystem-vr-component.html\">Local Component Codes</a>#FirstOtherAsianLiteral)</span></p><p><b>value</b>: Malaysian</p></blockquote><blockquote><p><b>component</b></p><p><b>code</b>: First American Indian Or Alaska Native Literal <span style=\"background: LightGoldenRodYellow; margin: 4px; border: 1px solid khaki\"> (<a href=\"https://build.fhir.org/ig/HL7/vr-common-library//CodeSystem-codesystem-vr-component.html\">Local Component Codes</a>#FirstAmericanIndianOrAlaskanNativeLiteral)</span></p><p><b>value</b>: Arikara</p></blockquote><blockquote><p><b>component</b></p><p><b>code</b>: Hispanic Mexican <span style=\"background: LightGoldenRodYellow; margin: 4px; border: 1px solid khaki\"> (<a href=\"https://build.fhir.org/ig/HL7/vr-common-library//CodeSystem-codesystem-vr-component.html\">Local Component Codes</a>#HispanicMexican)</span></p><p><b>value</b>: Yes <span style=\"background: LightGoldenRodYellow; margin: 4px; border: 1px solid khaki\"> (<a href=\"http://hl7.org/fhir/R4/v2/0136/index.html\">v2 Y/N Indicator</a>#Y)</span></p></blockquote><blockquote><p><b>component</b></p><p><b>code</b>: Hispanic Cuban <span style=\"background: LightGoldenRodYellow; margin: 4px; border: 1px solid khaki\"> (<a href=\"https://build.fhir.org/ig/HL7/vr-common-library//CodeSystem-codesystem-vr-component.html\">Local Component Codes</a>#HispanicCuban)</span></p><p><b>value</b>: Yes <span style=\"background: LightGoldenRodYellow; margin: 4px; border: 1px solid khaki\"> (<a href=\"http://hl7.org/fhir/R4/v2/0136/index.html\">v2 Y/N Indicator</a>#Y)</span></p></blockquote><blockquote><p><b>component</b></p><p><b>code</b>: Hispanic Puerto Rican <span style=\"background: LightGoldenRodYellow; margin: 4px; border: 1px solid khaki\"> (<a href=\"https://build.fhir.org/ig/HL7/vr-common-library//CodeSystem-codesystem-vr-component.html\">Local Component Codes</a>#HispanicPuertoRican)</span></p><p><b>value</b>: Yes <span style=\"background: LightGoldenRodYellow; margin: 4px; border: 1px solid khaki\"> (<a href=\"http://hl7.org/fhir/R4/v2/0136/index.html\">v2 Y/N Indicator</a>#Y)</span></p></blockquote><blockquote><p><b>component</b></p><p><b>code</b>: Hispanic Other <span style=\"background: LightGoldenRodYellow; margin: 4px; border: 1px solid khaki\"> (<a href=\"https://build.fhir.org/ig/HL7/vr-common-library//CodeSystem-codesystem-vr-component.html\">Local Component Codes</a>#HispanicOther)</span></p><p><b>value</b>: No <span style=\"background: LightGoldenRodYellow; margin: 4px; border: 1px solid khaki\"> (<a href=\"http://hl7.org/fhir/R4/v2/0136/index.html\">v2 Y/N Indicator</a>#N)</span></p></blockquote></div>"
      },
      "status" : "final",
      "code" : {
        "coding" : [{
          "system" : "http://hl7.org/fhir/us/vr-common-library/CodeSystem/CodeSystem-local-observation-codes-vr",
          "code" : "inputraceandethnicityMother"
        }]
      },
      "subject" : {
        "display" : "EBRS-generated - mother"
      },
      "component" : [{
        "code" : {
          "coding" : [{
            "system" : "http://hl7.org/fhir/us/vr-common-library/CodeSystem/codesystem-vr-component",
            "code" : "White"
          }]
        },
        "valueBoolean" : true
      },
      {
        "code" : {
          "coding" : [{
            "system" : "http://hl7.org/fhir/us/vr-common-library/CodeSystem/codesystem-vr-component",
            "code" : "BlackOrAfricanAmerican"
          }]
        },
        "valueBoolean" : false
      },
      {
        "code" : {
          "coding" : [{
            "system" : "http://hl7.org/fhir/us/vr-common-library/CodeSystem/codesystem-vr-component",
            "code" : "AmericanIndianOrAlaskanNative"
          }]
        },
        "valueBoolean" : true
      },
      {
        "code" : {
          "coding" : [{
            "system" : "http://hl7.org/fhir/us/vr-common-library/CodeSystem/codesystem-vr-component",
            "code" : "AsianIndian"
          }]
        },
        "valueBoolean" : false
      },
      {
        "code" : {
          "coding" : [{
            "system" : "http://hl7.org/fhir/us/vr-common-library/CodeSystem/codesystem-vr-component",
            "code" : "Chinese"
          }]
        },
        "valueBoolean" : false
      },
      {
        "code" : {
          "coding" : [{
            "system" : "http://hl7.org/fhir/us/vr-common-library/CodeSystem/codesystem-vr-component",
            "code" : "Filipino"
          }]
        },
        "valueBoolean" : false
      },
      {
        "code" : {
          "coding" : [{
            "system" : "http://hl7.org/fhir/us/vr-common-library/CodeSystem/codesystem-vr-component",
            "code" : "Japanese"
          }]
        },
        "valueBoolean" : false
      },
      {
        "code" : {
          "coding" : [{
            "system" : "http://hl7.org/fhir/us/vr-common-library/CodeSystem/codesystem-vr-component",
            "code" : "Korean"
          }]
        },
        "valueBoolean" : false
      },
      {
        "code" : {
          "coding" : [{
            "system" : "http://hl7.org/fhir/us/vr-common-library/CodeSystem/codesystem-vr-component",
            "code" : "Vietnamese"
          }]
        },
        "valueBoolean" : false
      },
      {
        "code" : {
          "coding" : [{
            "system" : "http://hl7.org/fhir/us/vr-common-library/CodeSystem/codesystem-vr-component",
            "code" : "OtherAsian"
          }]
        },
        "valueBoolean" : true
      },
      {
        "code" : {
          "coding" : [{
            "system" : "http://hl7.org/fhir/us/vr-common-library/CodeSystem/codesystem-vr-component",
            "code" : "NativeHawaiian"
          }]
        },
        "valueBoolean" : false
      },
      {
        "code" : {
          "coding" : [{
            "system" : "http://hl7.org/fhir/us/vr-common-library/CodeSystem/codesystem-vr-component",
            "code" : "GuamanianOrChamorro"
          }]
        },
        "valueBoolean" : false
      },
      {
        "code" : {
          "coding" : [{
            "system" : "http://hl7.org/fhir/us/vr-common-library/CodeSystem/codesystem-vr-component",
            "code" : "Samoan"
          }]
        },
        "valueBoolean" : false
      },
      {
        "code" : {
          "coding" : [{
            "system" : "http://hl7.org/fhir/us/vr-common-library/CodeSystem/codesystem-vr-component",
            "code" : "OtherPacificIslander"
          }]
        },
        "valueBoolean" : false
      },
      {
        "code" : {
          "coding" : [{
            "system" : "http://hl7.org/fhir/us/vr-common-library/CodeSystem/codesystem-vr-component",
            "code" : "OtherRace"
          }]
        },
        "valueBoolean" : false
      },
      {
        "code" : {
          "coding" : [{
            "system" : "http://hl7.org/fhir/us/vr-common-library/CodeSystem/codesystem-vr-component",
            "code" : "FirstOtherAsianLiteral"
          }]
        },
        "valueString" : "Malaysian"
      },
      {
        "code" : {
          "coding" : [{
            "system" : "http://hl7.org/fhir/us/vr-common-library/CodeSystem/codesystem-vr-component",
            "code" : "FirstAmericanIndianOrAlaskanNativeLiteral"
          }]
        },
        "valueString" : "Arikara"
      },
      {
        "code" : {
          "coding" : [{
            "system" : "http://hl7.org/fhir/us/vr-common-library/CodeSystem/codesystem-vr-component",
            "code" : "HispanicMexican"
          }]
        },
        "valueCodeableConcept" : {
          "coding" : [{
            "system" : "http://terminology.hl7.org/CodeSystem/v2-0136",
            "code" : "Y",
            "display" : "Yes"
          }]
        }
      },
      {
        "code" : {
          "coding" : [{
            "system" : "http://hl7.org/fhir/us/vr-common-library/CodeSystem/codesystem-vr-component",
            "code" : "HispanicCuban"
          }]
        },
        "valueCodeableConcept" : {
          "coding" : [{
            "system" : "http://terminology.hl7.org/CodeSystem/v2-0136",
            "code" : "Y",
            "display" : "Yes"
          }]
        }
      },
      {
        "code" : {
          "coding" : [{
            "system" : "http://hl7.org/fhir/us/vr-common-library/CodeSystem/codesystem-vr-component",
            "code" : "HispanicPuertoRican"
          }]
        },
        "valueCodeableConcept" : {
          "coding" : [{
            "system" : "http://terminology.hl7.org/CodeSystem/v2-0136",
            "code" : "Y",
            "display" : "Yes"
          }]
        }
      },
      {
        "code" : {
          "coding" : [{
            "system" : "http://hl7.org/fhir/us/vr-common-library/CodeSystem/codesystem-vr-component",
            "code" : "HispanicOther"
          }]
        },
        "valueCodeableConcept" : {
          "coding" : [{
            "system" : "http://terminology.hl7.org/CodeSystem/v2-0136",
            "code" : "N",
            "display" : "No"
          }]
        }
      }]
    }
  },
  {
    "fullUrl" : "http://www.example.org/fhir/Observation/observation-input-race-and-ethnicity-father",
    "resource" : {
      "resourceType" : "Observation",
      "id" : "observation-input-race-and-ethnicity-father",
      "meta" : {
        "profile" : ["http://hl7.org/fhir/us/vr-common-library/StructureDefinition/input-race-and-ethnicity-vr"]
      },
      "text" : {
        "status" : "generated",
        "div" : "<div xmlns=\"http://www.w3.org/1999/xhtml\"><p><b>Generated Narrative: Observation</b><a name=\"observation-input-race-and-ethnicity-father\"> </a></p><div style=\"display: inline-block; background-color: #d9e0e7; padding: 6px; margin: 4px; border: 1px solid #8da1b4; border-radius: 5px; line-height: 60%\"><p style=\"margin-bottom: 0px\">Resource Observation &quot;observation-input-race-and-ethnicity-father&quot; </p><p style=\"margin-bottom: 0px\">Profile: <a href=\"https://build.fhir.org/ig/HL7/vr-common-library//StructureDefinition-input-race-and-ethnicity-vr.html\">Observation - Input Race and Ethnicity Vital Records</a></p></div><p><b>status</b>: final</p><p><b>code</b>: Father Input Race and Ethnicity <span style=\"background: LightGoldenRodYellow; margin: 4px; border: 1px solid khaki\"> (<a href=\"https://build.fhir.org/ig/HL7/vr-common-library//CodeSystem-CodeSystem-local-observation-codes-vr.html\">Local Observation Codes Vital Records</a>#inputraceandethnicityFather)</span></p><p><b>subject</b>: <span>: EBRS-generated - father</span></p><blockquote><p><b>component</b></p><p><b>code</b>: White <span style=\"background: LightGoldenRodYellow; margin: 4px; border: 1px solid khaki\"> (<a href=\"https://build.fhir.org/ig/HL7/vr-common-library//CodeSystem-codesystem-vr-component.html\">Local Component Codes</a>#White)</span></p><p><b>value</b>: true</p></blockquote><blockquote><p><b>component</b></p><p><b>code</b>: Black Or African American <span style=\"background: LightGoldenRodYellow; margin: 4px; border: 1px solid khaki\"> (<a href=\"https://build.fhir.org/ig/HL7/vr-common-library//CodeSystem-codesystem-vr-component.html\">Local Component Codes</a>#BlackOrAfricanAmerican)</span></p><p><b>value</b>: false</p></blockquote><blockquote><p><b>component</b></p><p><b>code</b>: American Indian Or Alaska Native <span style=\"background: LightGoldenRodYellow; margin: 4px; border: 1px solid khaki\"> (<a href=\"https://build.fhir.org/ig/HL7/vr-common-library//CodeSystem-codesystem-vr-component.html\">Local Component Codes</a>#AmericanIndianOrAlaskanNative)</span></p><p><b>value</b>: true</p></blockquote><blockquote><p><b>component</b></p><p><b>code</b>: Asian Indian <span style=\"background: LightGoldenRodYellow; margin: 4px; border: 1px solid khaki\"> (<a href=\"https://build.fhir.org/ig/HL7/vr-common-library//CodeSystem-codesystem-vr-component.html\">Local Component Codes</a>#AsianIndian)</span></p><p><b>value</b>: false</p></blockquote><blockquote><p><b>component</b></p><p><b>code</b>: Chinese <span style=\"background: LightGoldenRodYellow; margin: 4px; border: 1px solid khaki\"> (<a href=\"https://build.fhir.org/ig/HL7/vr-common-library//CodeSystem-codesystem-vr-component.html\">Local Component Codes</a>#Chinese)</span></p><p><b>value</b>: false</p></blockquote><blockquote><p><b>component</b></p><p><b>code</b>: Filipino <span style=\"background: LightGoldenRodYellow; margin: 4px; border: 1px solid khaki\"> (<a href=\"https://build.fhir.org/ig/HL7/vr-common-library//CodeSystem-codesystem-vr-component.html\">Local Component Codes</a>#Filipino)</span></p><p><b>value</b>: false</p></blockquote><blockquote><p><b>component</b></p><p><b>code</b>: Japanese <span style=\"background: LightGoldenRodYellow; margin: 4px; border: 1px solid khaki\"> (<a href=\"https://build.fhir.org/ig/HL7/vr-common-library//CodeSystem-codesystem-vr-component.html\">Local Component Codes</a>#Japanese)</span></p><p><b>value</b>: false</p></blockquote><blockquote><p><b>component</b></p><p><b>code</b>: Korean <span style=\"background: LightGoldenRodYellow; margin: 4px; border: 1px solid khaki\"> (<a href=\"https://build.fhir.org/ig/HL7/vr-common-library//CodeSystem-codesystem-vr-component.html\">Local Component Codes</a>#Korean)</span></p><p><b>value</b>: false</p></blockquote><blockquote><p><b>component</b></p><p><b>code</b>: Vietnamese <span style=\"background: LightGoldenRodYellow; margin: 4px; border: 1px solid khaki\"> (<a href=\"https://build.fhir.org/ig/HL7/vr-common-library//CodeSystem-codesystem-vr-component.html\">Local Component Codes</a>#Vietnamese)</span></p><p><b>value</b>: false</p></blockquote><blockquote><p><b>component</b></p><p><b>code</b>: Other Asian <span style=\"background: LightGoldenRodYellow; margin: 4px; border: 1px solid khaki\"> (<a href=\"https://build.fhir.org/ig/HL7/vr-common-library//CodeSystem-codesystem-vr-component.html\">Local Component Codes</a>#OtherAsian)</span></p><p><b>value</b>: true</p></blockquote><blockquote><p><b>component</b></p><p><b>code</b>: Native Hawaiian <span style=\"background: LightGoldenRodYellow; margin: 4px; border: 1px solid khaki\"> (<a href=\"https://build.fhir.org/ig/HL7/vr-common-library//CodeSystem-codesystem-vr-component.html\">Local Component Codes</a>#NativeHawaiian)</span></p><p><b>value</b>: false</p></blockquote><blockquote><p><b>component</b></p><p><b>code</b>: Guamanian Or Chamorro <span style=\"background: LightGoldenRodYellow; margin: 4px; border: 1px solid khaki\"> (<a href=\"https://build.fhir.org/ig/HL7/vr-common-library//CodeSystem-codesystem-vr-component.html\">Local Component Codes</a>#GuamanianOrChamorro)</span></p><p><b>value</b>: false</p></blockquote><blockquote><p><b>component</b></p><p><b>code</b>: Samoan <span style=\"background: LightGoldenRodYellow; margin: 4px; border: 1px solid khaki\"> (<a href=\"https://build.fhir.org/ig/HL7/vr-common-library//CodeSystem-codesystem-vr-component.html\">Local Component Codes</a>#Samoan)</span></p><p><b>value</b>: false</p></blockquote><blockquote><p><b>component</b></p><p><b>code</b>: Other Pacific Islander <span style=\"background: LightGoldenRodYellow; margin: 4px; border: 1px solid khaki\"> (<a href=\"https://build.fhir.org/ig/HL7/vr-common-library//CodeSystem-codesystem-vr-component.html\">Local Component Codes</a>#OtherPacificIslander)</span></p><p><b>value</b>: false</p></blockquote><blockquote><p><b>component</b></p><p><b>code</b>: Other Race <span style=\"background: LightGoldenRodYellow; margin: 4px; border: 1px solid khaki\"> (<a href=\"https://build.fhir.org/ig/HL7/vr-common-library//CodeSystem-codesystem-vr-component.html\">Local Component Codes</a>#OtherRace)</span></p><p><b>value</b>: false</p></blockquote><blockquote><p><b>component</b></p><p><b>code</b>: First Other Asian Literal <span style=\"background: LightGoldenRodYellow; margin: 4px; border: 1px solid khaki\"> (<a href=\"https://build.fhir.org/ig/HL7/vr-common-library//CodeSystem-codesystem-vr-component.html\">Local Component Codes</a>#FirstOtherAsianLiteral)</span></p><p><b>value</b>: Malaysian</p></blockquote><blockquote><p><b>component</b></p><p><b>code</b>: First American Indian Or Alaska Native Literal <span style=\"background: LightGoldenRodYellow; margin: 4px; border: 1px solid khaki\"> (<a href=\"https://build.fhir.org/ig/HL7/vr-common-library//CodeSystem-codesystem-vr-component.html\">Local Component Codes</a>#FirstAmericanIndianOrAlaskanNativeLiteral)</span></p><p><b>value</b>: Arikara</p></blockquote><blockquote><p><b>component</b></p><p><b>code</b>: Hispanic Mexican <span style=\"background: LightGoldenRodYellow; margin: 4px; border: 1px solid khaki\"> (<a href=\"https://build.fhir.org/ig/HL7/vr-common-library//CodeSystem-codesystem-vr-component.html\">Local Component Codes</a>#HispanicMexican)</span></p><p><b>value</b>: Yes <span style=\"background: LightGoldenRodYellow; margin: 4px; border: 1px solid khaki\"> (<a href=\"http://hl7.org/fhir/R4/v2/0136/index.html\">v2 Y/N Indicator</a>#Y)</span></p></blockquote><blockquote><p><b>component</b></p><p><b>code</b>: Hispanic Cuban <span style=\"background: LightGoldenRodYellow; margin: 4px; border: 1px solid khaki\"> (<a href=\"https://build.fhir.org/ig/HL7/vr-common-library//CodeSystem-codesystem-vr-component.html\">Local Component Codes</a>#HispanicCuban)</span></p><p><b>value</b>: Yes <span style=\"background: LightGoldenRodYellow; margin: 4px; border: 1px solid khaki\"> (<a href=\"http://hl7.org/fhir/R4/v2/0136/index.html\">v2 Y/N Indicator</a>#Y)</span></p></blockquote><blockquote><p><b>component</b></p><p><b>code</b>: Hispanic Puerto Rican <span style=\"background: LightGoldenRodYellow; margin: 4px; border: 1px solid khaki\"> (<a href=\"https://build.fhir.org/ig/HL7/vr-common-library//CodeSystem-codesystem-vr-component.html\">Local Component Codes</a>#HispanicPuertoRican)</span></p><p><b>value</b>: Yes <span style=\"background: LightGoldenRodYellow; margin: 4px; border: 1px solid khaki\"> (<a href=\"http://hl7.org/fhir/R4/v2/0136/index.html\">v2 Y/N Indicator</a>#Y)</span></p></blockquote><blockquote><p><b>component</b></p><p><b>code</b>: Hispanic Other <span style=\"background: LightGoldenRodYellow; margin: 4px; border: 1px solid khaki\"> (<a href=\"https://build.fhir.org/ig/HL7/vr-common-library//CodeSystem-codesystem-vr-component.html\">Local Component Codes</a>#HispanicOther)</span></p><p><b>value</b>: No <span style=\"background: LightGoldenRodYellow; margin: 4px; border: 1px solid khaki\"> (<a href=\"http://hl7.org/fhir/R4/v2/0136/index.html\">v2 Y/N Indicator</a>#N)</span></p></blockquote></div>"
      },
      "status" : "final",
      "code" : {
        "coding" : [{
          "system" : "http://hl7.org/fhir/us/vr-common-library/CodeSystem/CodeSystem-local-observation-codes-vr",
          "code" : "inputraceandethnicityFather"
        }]
      },
      "subject" : {
        "display" : "EBRS-generated - father"
      },
      "component" : [{
        "code" : {
          "coding" : [{
            "system" : "http://hl7.org/fhir/us/vr-common-library/CodeSystem/codesystem-vr-component",
            "code" : "White"
          }]
        },
        "valueBoolean" : true
      },
      {
        "code" : {
          "coding" : [{
            "system" : "http://hl7.org/fhir/us/vr-common-library/CodeSystem/codesystem-vr-component",
            "code" : "BlackOrAfricanAmerican"
          }]
        },
        "valueBoolean" : false
      },
      {
        "code" : {
          "coding" : [{
            "system" : "http://hl7.org/fhir/us/vr-common-library/CodeSystem/codesystem-vr-component",
            "code" : "AmericanIndianOrAlaskanNative"
          }]
        },
        "valueBoolean" : true
      },
      {
        "code" : {
          "coding" : [{
            "system" : "http://hl7.org/fhir/us/vr-common-library/CodeSystem/codesystem-vr-component",
            "code" : "AsianIndian"
          }]
        },
        "valueBoolean" : false
      },
      {
        "code" : {
          "coding" : [{
            "system" : "http://hl7.org/fhir/us/vr-common-library/CodeSystem/codesystem-vr-component",
            "code" : "Chinese"
          }]
        },
        "valueBoolean" : false
      },
      {
        "code" : {
          "coding" : [{
            "system" : "http://hl7.org/fhir/us/vr-common-library/CodeSystem/codesystem-vr-component",
            "code" : "Filipino"
          }]
        },
        "valueBoolean" : false
      },
      {
        "code" : {
          "coding" : [{
            "system" : "http://hl7.org/fhir/us/vr-common-library/CodeSystem/codesystem-vr-component",
            "code" : "Japanese"
          }]
        },
        "valueBoolean" : false
      },
      {
        "code" : {
          "coding" : [{
            "system" : "http://hl7.org/fhir/us/vr-common-library/CodeSystem/codesystem-vr-component",
            "code" : "Korean"
          }]
        },
        "valueBoolean" : false
      },
      {
        "code" : {
          "coding" : [{
            "system" : "http://hl7.org/fhir/us/vr-common-library/CodeSystem/codesystem-vr-component",
            "code" : "Vietnamese"
          }]
        },
        "valueBoolean" : false
      },
      {
        "code" : {
          "coding" : [{
            "system" : "http://hl7.org/fhir/us/vr-common-library/CodeSystem/codesystem-vr-component",
            "code" : "OtherAsian"
          }]
        },
        "valueBoolean" : true
      },
      {
        "code" : {
          "coding" : [{
            "system" : "http://hl7.org/fhir/us/vr-common-library/CodeSystem/codesystem-vr-component",
            "code" : "NativeHawaiian"
          }]
        },
        "valueBoolean" : false
      },
      {
        "code" : {
          "coding" : [{
            "system" : "http://hl7.org/fhir/us/vr-common-library/CodeSystem/codesystem-vr-component",
            "code" : "GuamanianOrChamorro"
          }]
        },
        "valueBoolean" : false
      },
      {
        "code" : {
          "coding" : [{
            "system" : "http://hl7.org/fhir/us/vr-common-library/CodeSystem/codesystem-vr-component",
            "code" : "Samoan"
          }]
        },
        "valueBoolean" : false
      },
      {
        "code" : {
          "coding" : [{
            "system" : "http://hl7.org/fhir/us/vr-common-library/CodeSystem/codesystem-vr-component",
            "code" : "OtherPacificIslander"
          }]
        },
        "valueBoolean" : false
      },
      {
        "code" : {
          "coding" : [{
            "system" : "http://hl7.org/fhir/us/vr-common-library/CodeSystem/codesystem-vr-component",
            "code" : "OtherRace"
          }]
        },
        "valueBoolean" : false
      },
      {
        "code" : {
          "coding" : [{
            "system" : "http://hl7.org/fhir/us/vr-common-library/CodeSystem/codesystem-vr-component",
            "code" : "FirstOtherAsianLiteral"
          }]
        },
        "valueString" : "Malaysian"
      },
      {
        "code" : {
          "coding" : [{
            "system" : "http://hl7.org/fhir/us/vr-common-library/CodeSystem/codesystem-vr-component",
            "code" : "FirstAmericanIndianOrAlaskanNativeLiteral"
          }]
        },
        "valueString" : "Arikara"
      },
      {
        "code" : {
          "coding" : [{
            "system" : "http://hl7.org/fhir/us/vr-common-library/CodeSystem/codesystem-vr-component",
            "code" : "HispanicMexican"
          }]
        },
        "valueCodeableConcept" : {
          "coding" : [{
            "system" : "http://terminology.hl7.org/CodeSystem/v2-0136",
            "code" : "Y",
            "display" : "Yes"
          }]
        }
      },
      {
        "code" : {
          "coding" : [{
            "system" : "http://hl7.org/fhir/us/vr-common-library/CodeSystem/codesystem-vr-component",
            "code" : "HispanicCuban"
          }]
        },
        "valueCodeableConcept" : {
          "coding" : [{
            "system" : "http://terminology.hl7.org/CodeSystem/v2-0136",
            "code" : "Y",
            "display" : "Yes"
          }]
        }
      },
      {
        "code" : {
          "coding" : [{
            "system" : "http://hl7.org/fhir/us/vr-common-library/CodeSystem/codesystem-vr-component",
            "code" : "HispanicPuertoRican"
          }]
        },
        "valueCodeableConcept" : {
          "coding" : [{
            "system" : "http://terminology.hl7.org/CodeSystem/v2-0136",
            "code" : "Y",
            "display" : "Yes"
          }]
        }
      },
      {
        "code" : {
          "coding" : [{
            "system" : "http://hl7.org/fhir/us/vr-common-library/CodeSystem/codesystem-vr-component",
            "code" : "HispanicOther"
          }]
        },
        "valueCodeableConcept" : {
          "coding" : [{
            "system" : "http://terminology.hl7.org/CodeSystem/v2-0136",
            "code" : "N",
            "display" : "No"
          }]
        }
      }]
    }
  },
  {
    "fullUrl" : "http://www.example.org/fhir/Observation/observation-coded-race-and-ethnicity-mother",
    "resource" : {
      "resourceType" : "Observation",
      "id" : "observation-coded-race-and-ethnicity-mother",
      "meta" : {
        "profile" : ["http://hl7.org/fhir/us/vr-common-library/StructureDefinition/coded-race-and-ethnicity-vr"]
      },
      "text" : {
        "status" : "generated",
        "div" : "<div xmlns=\"http://www.w3.org/1999/xhtml\"><p><b>Generated Narrative: Observation</b><a name=\"observation-coded-race-and-ethnicity-mother\"> </a></p><div style=\"display: inline-block; background-color: #d9e0e7; padding: 6px; margin: 4px; border: 1px solid #8da1b4; border-radius: 5px; line-height: 60%\"><p style=\"margin-bottom: 0px\">Resource Observation &quot;observation-coded-race-and-ethnicity-mother&quot; </p><p style=\"margin-bottom: 0px\">Profile: <a href=\"https://build.fhir.org/ig/HL7/vr-common-library//StructureDefinition-coded-race-and-ethnicity-vr.html\">Observation - Coded Race and Ethnicity Vital Records</a></p></div><p><b>status</b>: final</p><p><b>code</b>: Mother Coded Race and Ethnicity <span style=\"background: LightGoldenRodYellow; margin: 4px; border: 1px solid khaki\"> (<a href=\"https://build.fhir.org/ig/HL7/vr-common-library//CodeSystem-CodeSystem-local-observation-codes-vr.html\">Local Observation Codes Vital Records</a>#codedraceandethnicityMother)</span></p><p><b>subject</b>: <span>: NCHS generated - mother</span></p><blockquote><p><b>component</b></p><p><b>code</b>: First Edited Race Code <span style=\"background: LightGoldenRodYellow; margin: 4px; border: 1px solid khaki\"> (<a href=\"https://build.fhir.org/ig/HL7/vr-common-library//CodeSystem-codesystem-vr-component.html\">Local Component Codes</a>#FirstEditedCode)</span></p><p><b>value</b>: White <span style=\"background: LightGoldenRodYellow; margin: 4px; border: 1px solid khaki\"> (<a href=\"https://build.fhir.org/ig/HL7/vr-common-library//CodeSystem-CodeSystem-race-code-vr.html\">Race Code Vital Records</a>#101)</span></p></blockquote><blockquote><p><b>component</b></p><p><b>code</b>: Second Edited Race Code <span style=\"background: LightGoldenRodYellow; margin: 4px; border: 1px solid khaki\"> (<a href=\"https://build.fhir.org/ig/HL7/vr-common-library//CodeSystem-codesystem-vr-component.html\">Local Component Codes</a>#SecondEditedCode)</span></p><p><b>value</b>: Israeli <span style=\"background: LightGoldenRodYellow; margin: 4px; border: 1px solid khaki\"> (<a href=\"https://build.fhir.org/ig/HL7/vr-common-library//CodeSystem-CodeSystem-race-code-vr.html\">Race Code Vital Records</a>#122)</span></p></blockquote><blockquote><p><b>component</b></p><p><b>code</b>: First Edited American Indian Race Code <span style=\"background: LightGoldenRodYellow; margin: 4px; border: 1px solid khaki\"> (<a href=\"https://build.fhir.org/ig/HL7/vr-common-library//CodeSystem-codesystem-vr-component.html\">Local Component Codes</a>#FirstAmericanIndianCode)</span></p><p><b>value</b>: Arikara <span style=\"background: LightGoldenRodYellow; margin: 4px; border: 1px solid khaki\"> (<a href=\"https://build.fhir.org/ig/HL7/vr-common-library//CodeSystem-CodeSystem-race-code-vr.html\">Race Code Vital Records</a>#A31)</span></p></blockquote><blockquote><p><b>component</b></p><p><b>code</b>: Race Recode 40 <span style=\"background: LightGoldenRodYellow; margin: 4px; border: 1px solid khaki\"> (<a href=\"https://build.fhir.org/ig/HL7/vr-common-library//CodeSystem-codesystem-vr-component.html\">Local Component Codes</a>#RaceRecode40)</span></p><p><b>value</b>: AIAN and Asian <span style=\"background: LightGoldenRodYellow; margin: 4px; border: 1px solid khaki\"> (<a href=\"https://build.fhir.org/ig/HL7/vr-common-library//CodeSystem-CodeSystem-race-recode-40-vr.html\">Race Recode 40 Vital Records</a>#20)</span></p></blockquote><blockquote><p><b>component</b></p><p><b>code</b>: Hispanic Code <span style=\"background: LightGoldenRodYellow; margin: 4px; border: 1px solid khaki\"> (<a href=\"https://build.fhir.org/ig/HL7/vr-common-library//CodeSystem-codesystem-vr-component.html\">Local Component Codes</a>#HispanicCode)</span></p><p><b>value</b>: Chilean <span style=\"background: LightGoldenRodYellow; margin: 4px; border: 1px solid khaki\"> (<a href=\"https://build.fhir.org/ig/HL7/vr-common-library//CodeSystem-CodeSystem-hispanic-origin-vr.html\">HispanicOrigin Vital Records</a>#233)</span></p></blockquote></div>"
      },
      "status" : "final",
      "code" : {
        "coding" : [{
          "system" : "http://hl7.org/fhir/us/vr-common-library/CodeSystem/CodeSystem-local-observation-codes-vr",
          "code" : "codedraceandethnicityMother"
        }]
      },
      "subject" : {
        "display" : "NCHS generated - mother"
      },
      "component" : [{
        "code" : {
          "coding" : [{
            "system" : "http://hl7.org/fhir/us/vr-common-library/CodeSystem/codesystem-vr-component",
            "code" : "FirstEditedCode"
          }]
        },
        "valueCodeableConcept" : {
          "coding" : [{
            "system" : "http://hl7.org/fhir/us/vr-common-library/CodeSystem/CodeSystem-race-code-vr",
            "code" : "101",
            "display" : "White"
          }]
        }
      },
      {
        "code" : {
          "coding" : [{
            "system" : "http://hl7.org/fhir/us/vr-common-library/CodeSystem/codesystem-vr-component",
            "code" : "SecondEditedCode"
          }]
        },
        "valueCodeableConcept" : {
          "coding" : [{
            "system" : "http://hl7.org/fhir/us/vr-common-library/CodeSystem/CodeSystem-race-code-vr",
            "code" : "122",
            "display" : "Israeli"
          }]
        }
      },
      {
        "code" : {
          "coding" : [{
            "system" : "http://hl7.org/fhir/us/vr-common-library/CodeSystem/codesystem-vr-component",
            "code" : "FirstAmericanIndianCode"
          }]
        },
        "valueCodeableConcept" : {
          "coding" : [{
            "system" : "http://hl7.org/fhir/us/vr-common-library/CodeSystem/CodeSystem-race-code-vr",
            "code" : "A31",
            "display" : "Arikara"
          }]
        }
      },
      {
        "code" : {
          "coding" : [{
            "system" : "http://hl7.org/fhir/us/vr-common-library/CodeSystem/codesystem-vr-component",
            "code" : "RaceRecode40"
          }]
        },
        "valueCodeableConcept" : {
          "coding" : [{
            "system" : "http://hl7.org/fhir/us/vr-common-library/CodeSystem/CodeSystem-race-recode-40-vr",
            "code" : "20",
            "display" : "AIAN and Asian"
          }]
        }
      },
      {
        "code" : {
          "coding" : [{
            "system" : "http://hl7.org/fhir/us/vr-common-library/CodeSystem/codesystem-vr-component",
            "code" : "HispanicCode"
          }]
        },
        "valueCodeableConcept" : {
          "coding" : [{
            "system" : "http://hl7.org/fhir/us/vr-common-library/CodeSystem/CodeSystem-hispanic-origin-vr",
            "code" : "233",
            "display" : "Chilean"
          }]
        }
      }]
    }
  },
  {
    "fullUrl" : "http://www.example.org/fhir/Observation/observation-coded-race-and-ethnicity-father",
    "resource" : {
      "resourceType" : "Observation",
      "id" : "observation-coded-race-and-ethnicity-father",
      "meta" : {
        "profile" : ["http://hl7.org/fhir/us/vr-common-library/StructureDefinition/coded-race-and-ethnicity-vr"]
      },
      "text" : {
        "status" : "generated",
        "div" : "<div xmlns=\"http://www.w3.org/1999/xhtml\"><p><b>Generated Narrative: Observation</b><a name=\"observation-coded-race-and-ethnicity-father\"> </a></p><div style=\"display: inline-block; background-color: #d9e0e7; padding: 6px; margin: 4px; border: 1px solid #8da1b4; border-radius: 5px; line-height: 60%\"><p style=\"margin-bottom: 0px\">Resource Observation &quot;observation-coded-race-and-ethnicity-father&quot; </p><p style=\"margin-bottom: 0px\">Profile: <a href=\"https://build.fhir.org/ig/HL7/vr-common-library//StructureDefinition-coded-race-and-ethnicity-vr.html\">Observation - Coded Race and Ethnicity Vital Records</a></p></div><p><b>status</b>: final</p><p><b>code</b>: Father Coded Race and Ethnicity <span style=\"background: LightGoldenRodYellow; margin: 4px; border: 1px solid khaki\"> (<a href=\"https://build.fhir.org/ig/HL7/vr-common-library//CodeSystem-CodeSystem-local-observation-codes-vr.html\">Local Observation Codes Vital Records</a>#codedraceandethnicityFather)</span></p><p><b>subject</b>: <span>: NCHS generated - father</span></p><blockquote><p><b>component</b></p><p><b>code</b>: First Edited Race Code <span style=\"background: LightGoldenRodYellow; margin: 4px; border: 1px solid khaki\"> (<a href=\"https://build.fhir.org/ig/HL7/vr-common-library//CodeSystem-codesystem-vr-component.html\">Local Component Codes</a>#FirstEditedCode)</span></p><p><b>value</b>: White <span style=\"background: LightGoldenRodYellow; margin: 4px; border: 1px solid khaki\"> (<a href=\"https://build.fhir.org/ig/HL7/vr-common-library//CodeSystem-CodeSystem-race-code-vr.html\">Race Code Vital Records</a>#101)</span></p></blockquote><blockquote><p><b>component</b></p><p><b>code</b>: Second Edited Race Code <span style=\"background: LightGoldenRodYellow; margin: 4px; border: 1px solid khaki\"> (<a href=\"https://build.fhir.org/ig/HL7/vr-common-library//CodeSystem-codesystem-vr-component.html\">Local Component Codes</a>#SecondEditedCode)</span></p><p><b>value</b>: Israeli <span style=\"background: LightGoldenRodYellow; margin: 4px; border: 1px solid khaki\"> (<a href=\"https://build.fhir.org/ig/HL7/vr-common-library//CodeSystem-CodeSystem-race-code-vr.html\">Race Code Vital Records</a>#122)</span></p></blockquote><blockquote><p><b>component</b></p><p><b>code</b>: First Edited American Indian Race Code <span style=\"background: LightGoldenRodYellow; margin: 4px; border: 1px solid khaki\"> (<a href=\"https://build.fhir.org/ig/HL7/vr-common-library//CodeSystem-codesystem-vr-component.html\">Local Component Codes</a>#FirstAmericanIndianCode)</span></p><p><b>value</b>: Arikara <span style=\"background: LightGoldenRodYellow; margin: 4px; border: 1px solid khaki\"> (<a href=\"https://build.fhir.org/ig/HL7/vr-common-library//CodeSystem-CodeSystem-race-code-vr.html\">Race Code Vital Records</a>#A31)</span></p></blockquote><blockquote><p><b>component</b></p><p><b>code</b>: Race Recode 40 <span style=\"background: LightGoldenRodYellow; margin: 4px; border: 1px solid khaki\"> (<a href=\"https://build.fhir.org/ig/HL7/vr-common-library//CodeSystem-codesystem-vr-component.html\">Local Component Codes</a>#RaceRecode40)</span></p><p><b>value</b>: AIAN and Asian <span style=\"background: LightGoldenRodYellow; margin: 4px; border: 1px solid khaki\"> (<a href=\"https://build.fhir.org/ig/HL7/vr-common-library//CodeSystem-CodeSystem-race-recode-40-vr.html\">Race Recode 40 Vital Records</a>#20)</span></p></blockquote><blockquote><p><b>component</b></p><p><b>code</b>: Hispanic Code <span style=\"background: LightGoldenRodYellow; margin: 4px; border: 1px solid khaki\"> (<a href=\"https://build.fhir.org/ig/HL7/vr-common-library//CodeSystem-codesystem-vr-component.html\">Local Component Codes</a>#HispanicCode)</span></p><p><b>value</b>: Chilean <span style=\"background: LightGoldenRodYellow; margin: 4px; border: 1px solid khaki\"> (<a href=\"https://build.fhir.org/ig/HL7/vr-common-library//CodeSystem-CodeSystem-hispanic-origin-vr.html\">HispanicOrigin Vital Records</a>#233)</span></p></blockquote></div>"
      },
      "status" : "final",
      "code" : {
        "coding" : [{
          "system" : "http://hl7.org/fhir/us/vr-common-library/CodeSystem/CodeSystem-local-observation-codes-vr",
          "code" : "codedraceandethnicityFather"
        }]
      },
      "subject" : {
        "display" : "NCHS generated - father"
      },
      "component" : [{
        "code" : {
          "coding" : [{
            "system" : "http://hl7.org/fhir/us/vr-common-library/CodeSystem/codesystem-vr-component",
            "code" : "FirstEditedCode"
          }]
        },
        "valueCodeableConcept" : {
          "coding" : [{
            "system" : "http://hl7.org/fhir/us/vr-common-library/CodeSystem/CodeSystem-race-code-vr",
            "code" : "101",
            "display" : "White"
          }]
        }
      },
      {
        "code" : {
          "coding" : [{
            "system" : "http://hl7.org/fhir/us/vr-common-library/CodeSystem/codesystem-vr-component",
            "code" : "SecondEditedCode"
          }]
        },
        "valueCodeableConcept" : {
          "coding" : [{
            "system" : "http://hl7.org/fhir/us/vr-common-library/CodeSystem/CodeSystem-race-code-vr",
            "code" : "122",
            "display" : "Israeli"
          }]
        }
      },
      {
        "code" : {
          "coding" : [{
            "system" : "http://hl7.org/fhir/us/vr-common-library/CodeSystem/codesystem-vr-component",
            "code" : "FirstAmericanIndianCode"
          }]
        },
        "valueCodeableConcept" : {
          "coding" : [{
            "system" : "http://hl7.org/fhir/us/vr-common-library/CodeSystem/CodeSystem-race-code-vr",
            "code" : "A31",
            "display" : "Arikara"
          }]
        }
      },
      {
        "code" : {
          "coding" : [{
            "system" : "http://hl7.org/fhir/us/vr-common-library/CodeSystem/codesystem-vr-component",
            "code" : "RaceRecode40"
          }]
        },
        "valueCodeableConcept" : {
          "coding" : [{
            "system" : "http://hl7.org/fhir/us/vr-common-library/CodeSystem/CodeSystem-race-recode-40-vr",
            "code" : "20",
            "display" : "AIAN and Asian"
          }]
        }
      },
      {
        "code" : {
          "coding" : [{
            "system" : "http://hl7.org/fhir/us/vr-common-library/CodeSystem/codesystem-vr-component",
            "code" : "HispanicCode"
          }]
        },
        "valueCodeableConcept" : {
          "coding" : [{
            "system" : "http://hl7.org/fhir/us/vr-common-library/CodeSystem/CodeSystem-hispanic-origin-vr",
            "code" : "233",
            "display" : "Chilean"
          }]
        }
      }]
    }
  }]
}