{
  "resourceType" : "Bundle",
  "id" : "bundle-jurisdiction-fetal-death-not-named",
  "meta" : {
    "profile" : ["http://hl7.org/fhir/us/bfdr/StructureDefinition/Bundle-document-fetal-death-report"]
  },
  "identifier" : {
    "extension" : [{
      "url" : "http://hl7.org/fhir/us/vr-common-library/StructureDefinition/CertificateNumber",
      "valueString" : "9876"
    },
    {
      "url" : "http://hl7.org/fhir/us/vr-common-library/StructureDefinition/AuxiliaryStateIdentifier1",
      "valueString" : "11111-11111"
    }],
    "system" : "http://hl7.org/fhir/us/vr-common-library/CodeSystem/codesystem-ije-vr",
    "value" : "2019NJ009876"
  },
  "type" : "document",
  "timestamp" : "2019-10-15T08:51:14.637+00:00",
  "entry" : [{
    "fullUrl" : "http://www.example.org/fhir/Composition/composition-jurisdiction-fetal-death-not-named",
    "resource" : {
      "resourceType" : "Composition",
      "id" : "composition-jurisdiction-fetal-death-not-named",
      "meta" : {
        "profile" : ["http://hl7.org/fhir/us/bfdr/StructureDefinition/Composition-jurisdiction-fetal-death-report"]
      },
      "text" : {
        "status" : "generated",
        "div" : "<div xmlns=\"http://www.w3.org/1999/xhtml\"><p><b>Generated Narrative: Composition</b><a name=\"composition-jurisdiction-fetal-death-not-named\"> </a></p><div style=\"display: inline-block; background-color: #d9e0e7; padding: 6px; margin: 4px; border: 1px solid #8da1b4; border-radius: 5px; line-height: 60%\"><p style=\"margin-bottom: 0px\">Resource Composition &quot;composition-jurisdiction-fetal-death-not-named&quot; </p><p style=\"margin-bottom: 0px\">Profile: <a href=\"StructureDefinition-Composition-jurisdiction-fetal-death-report.html\">Composition - Jurisdiction Fetal Death Report</a></p></div><p><b>status</b>: final</p><p><b>type</b>: Jurisdiction fetal death report Document <span style=\"background: LightGoldenRodYellow; margin: 4px; border: 1px solid khaki\"> (<a href=\"https://loinc.org/\">LOINC</a>#92010-8)</span></p><p><b>encounter</b>: <a href=\"#Encounter_encounter-maternity-carmen-teresa-lee\">See above (Encounter/encounter-maternity-carmen-teresa-lee)</a></p><p><b>date</b>: 2019-01-09</p><p><b>author</b>: <a href=\"#Organization_organization-jurisdictional-vital-records-office\">See above (Organization/organization-jurisdictional-vital-records-office)</a></p><p><b>title</b>: Jurisdiction fetal death report Document</p></div>"
      },
      "status" : "final",
      "type" : {
        "coding" : [{
          "system" : "http://loinc.org",
          "code" : "92010-8",
          "display" : "Jurisdiction fetal death report Document"
        }]
      },
      "subject" : {
        "reference" : "Patient/patient-decedent-fetus-not-named"
      },
      "encounter" : {
        "reference" : "Encounter/encounter-maternity-carmen-teresa-lee"
      },
      "date" : "2019-01-09",
      "author" : [{
        "reference" : "Organization/organization-jurisdictional-vital-records-office"
      }],
      "title" : "Jurisdiction fetal death report Document",
      "section" : [{
        "code" : {
          "coding" : [{
            "system" : "http://loinc.org",
            "code" : "57073-9"
          }]
        },
        "focus" : {
          "reference" : "Patient/patient-mother-carmen-teresa-lee"
        },
        "entry" : [{
          "reference" : "Observation/observation-date-of-first-prenatal-care-visit-carmen-teresa-lee"
        },
        {
          "reference" : "Observation/observation-last-menstrual-period-carmen-teresa-lee"
        },
        {
          "reference" : "Observation/observation-number-births-now-living-carmen-teresa-lee"
        },
        {
          "reference" : "Observation/observation-number-births-now-dead-carmen-teresa-lee"
        },
        {
          "reference" : "Observation/observation-date-of-last-live-birth-carmen-teresa-lee"
        },
        {
          "reference" : "Observation/observation-mother-height-carmen-teresa-lee-w-edit"
        },
        {
          "reference" : "Observation/observation-mother-prepregnancy-weight-carmen-teresa-lee-w-edit"
        },
        {
          "reference" : "Observation/observation-mother-received-wic-food-carmen-teresa-lee"
        },
        {
          "reference" : "Observation/observation-cig-smoking-pregnancy-1-carmen-teresa-lee"
        },
        {
          "reference" : "Observation/observation-cig-smoking-pregnancy-2-carmen-teresa-lee"
        },
        {
          "reference" : "Observation/observation-cig-smoking-pregnancy-3-carmen-teresa-lee"
        },
        {
          "reference" : "Observation/observation-cig-smoking-pregnancy-4-carmen-teresa-lee"
        }]
      },
      {
        "code" : {
          "coding" : [{
            "system" : "http://loinc.org",
            "code" : "55752-0"
          }]
        },
        "focus" : {
          "reference" : "Patient/patient-mother-carmen-teresa-lee"
        },
        "entry" : [{
          "reference" : "Observation/observation-number-previous-cesareans-carmen-teresa-lee-w-edit"
        },
        {
          "reference" : "Observation/observation-fetal-presentation-not-named"
        },
        {
          "reference" : "Procedure/procedure-final-route-method-delivery-not-named"
        }]
      },
      {
        "code" : {
          "coding" : [{
            "system" : "http://loinc.org",
            "code" : "76400-1"
          }]
        },
        "entry" : [{
          "reference" : "Observation/observation-birth-weight-not-named-w-edit"
        },
        {
          "reference" : "Observation/observation-gestational-age-at-delivery-not-named-w-edit"
        },
        {
          "reference" : "Condition/condition-fetal-death-cause-or-condition-not-named"
        },
        {
          "reference" : "Condition/condition-fetal-death-other-significant-cause-not-named"
        },
        {
          "reference" : "Observation/observation-fetal-death-time-point-not-named"
        },
        {
          "reference" : "Observation/observation-autopsy-performed-not-named"
        },
        {
          "reference" : "Observation/observation-histological-placental-exam-performed-not-named"
        },
        {
          "reference" : "Observation/observation-autopsy-histological-exam-results-used-not-named"
        },
        {
          "reference" : "Observation/observation-number-deaths-this-delivery-carmen-teresa-lee"
        }]
      },
      {
        "code" : {
          "coding" : [{
            "system" : "http://loinc.org",
            "code" : "92014-0"
          }]
        },
        "focus" : {
          "reference" : "Patient/patient-mother-carmen-teresa-lee"
        },
        "entry" : [{
          "reference" : "Observation/observation-parent-education-level-carmen-teresa-lee-w-edit"
        },
        {
          "reference" : "Observation/observation-usual-work-carmen-teresa-lee"
        },
        {
          "reference" : "Observation/observation-input-race-and-ethnicity-carmen-teresa-lee"
        }]
      },
      {
        "code" : {
          "coding" : [{
            "system" : "http://loinc.org",
            "code" : "92013-2"
          }]
        },
        "focus" : {
          "reference" : "RelatedPerson/relatedperson-father-natural-tom-yan-lee"
        },
        "entry" : [{
          "reference" : "Observation/observation-usual-work-tom-yan-lee"
        }]
      }]
    }
  },
  {
    "fullUrl" : "http://www.example.org/fhir/Patient/patient-decedent-fetus-not-named",
    "resource" : {
      "resourceType" : "Patient",
      "id" : "patient-decedent-fetus-not-named",
      "meta" : {
        "profile" : ["http://hl7.org/fhir/us/bfdr/StructureDefinition/Patient-decedent-fetus"]
      },
      "text" : {
        "status" : "extensions",
        "div" : "<div xmlns=\"http://www.w3.org/1999/xhtml\"><p><b>Generated Narrative: Patient</b><a name=\"patient-decedent-fetus-not-named\"> </a></p><div style=\"display: inline-block; background-color: #d9e0e7; padding: 6px; margin: 4px; border: 1px solid #8da1b4; border-radius: 5px; line-height: 60%\"><p style=\"margin-bottom: 0px\">Resource Patient &quot;patient-decedent-fetus-not-named&quot; </p><p style=\"margin-bottom: 0px\">Profile: <a href=\"StructureDefinition-Patient-decedent-fetus.html\">Patient - Decedent Fetus</a></p></div><p><b>Patient Fetal Death Vital Records</b>: Fetal death (Details: SNOMED CT code 276507005 = 'Fetal death', stated as 'null')</p><p><b>US Core Birth Sex Extension</b>: F</p><p><b>Birth Place</b>: Ann Arbor MI 48103 </p><blockquote><p><b>Reported Parent Age At Delivery Vital Records</b></p><blockquote><p><b>url</b></p><code>reportedAge</code></blockquote><p><b>value</b>: 34 a<span style=\"background: LightGoldenRodYellow\"> (Details: UCUM code a = 'a')</span></p><blockquote><p><b>url</b></p><a href=\"https://build.fhir.org/ig/HL7/vr-common-library//StructureDefinition-Extension-role-vr.html\">Role Vital Records</a></blockquote><p><b>value</b>: mother <span style=\"background: LightGoldenRodYellow; margin: 4px; border: 1px solid khaki\"> (<a href=\"http://terminology.hl7.org/5.0.0/CodeSystem-v3-RoleCode.html\">RoleCode</a>#MTH)</span></p></blockquote><blockquote><p><b>Reported Parent Age At Delivery Vital Records</b></p><blockquote><p><b>url</b></p><code>reportedAge</code></blockquote><p><b>value</b>: 35 a<span style=\"background: LightGoldenRodYellow\"> (Details: UCUM code a = 'a')</span></p><blockquote><p><b>url</b></p><a href=\"https://build.fhir.org/ig/HL7/vr-common-library//StructureDefinition-Extension-role-vr.html\">Role Vital Records</a></blockquote><p><b>value</b>: father <span style=\"background: LightGoldenRodYellow; margin: 4px; border: 1px solid khaki\"> (<a href=\"http://terminology.hl7.org/5.0.0/CodeSystem-v3-RoleCode.html\">RoleCode</a>#FTH)</span></p></blockquote><p><b>identifier</b>: Medical Record Number:\u00a09932702\u00a0(use:\u00a0USUAL)</p><p><b>name</b>: null (OFFICIAL)</p><p><b>gender</b>: female</p><p><b>birthDate</b>: 2019-01-09</p><p><b>deceased</b>: true</p><p><b>multipleBirth</b>: 3</p></div>"
      },
      "extension" : [{
        "url" : "http://hl7.org/fhir/us/vr-common-library/StructureDefinition/Extension-patient-fetal-death-vr",
        "valueCoding" : {
          "system" : "http://snomed.info/sct",
          "code" : "276507005"
        }
      },
      {
        "url" : "http://hl7.org/fhir/us/core/StructureDefinition/us-core-birthsex",
        "valueCode" : "F"
      },
      {
        "url" : "http://hl7.org/fhir/StructureDefinition/patient-birthPlace",
        "valueAddress" : {
          "city" : "Ann Arbor",
          "state" : "MI",
          "postalCode" : "48103"
        }
      },
      {
        "extension" : [{
          "url" : "reportedAge",
          "valueQuantity" : {
            "value" : 34,
            "system" : "http://unitsofmeasure.org",
            "code" : "a"
          }
        },
        {
          "url" : "http://hl7.org/fhir/us/vr-common-library/StructureDefinition/Extension-role-vr",
          "valueCodeableConcept" : {
            "coding" : [{
              "system" : "http://terminology.hl7.org/CodeSystem/v3-RoleCode",
              "code" : "MTH",
              "display" : "mother"
            }]
          }
        }],
        "url" : "http://hl7.org/fhir/us/vr-common-library/StructureDefinition/Extension-reported-parent-age-at-delivery-vr"
      },
      {
        "extension" : [{
          "url" : "reportedAge",
          "valueQuantity" : {
            "value" : 35,
            "system" : "http://unitsofmeasure.org",
            "code" : "a"
          }
        },
        {
          "url" : "http://hl7.org/fhir/us/vr-common-library/StructureDefinition/Extension-role-vr",
          "valueCodeableConcept" : {
            "coding" : [{
              "system" : "http://terminology.hl7.org/CodeSystem/v3-RoleCode",
              "code" : "FTH",
              "display" : "father"
            }]
          }
        }],
        "url" : "http://hl7.org/fhir/us/vr-common-library/StructureDefinition/Extension-reported-parent-age-at-delivery-vr"
      }],
      "identifier" : [{
        "use" : "usual",
        "type" : {
          "coding" : [{
            "system" : "http://terminology.hl7.org/CodeSystem/v2-0203",
            "code" : "MR",
            "display" : "Medical Record Number"
          }]
        },
        "system" : "http://hospital.smarthealthit.org",
        "value" : "9932702"
      }],
      "name" : [{
        "use" : "official",
        "_family" : {
          "extension" : [{
            "url" : "http://hl7.org/fhir/StructureDefinition/data-absent-reason",
            "valueCode" : "not-applicable"
          }]
        }
      }],
      "gender" : "female",
      "birthDate" : "2019-01-09",
      "_birthDate" : {
        "extension" : [{
          "url" : "http://hl7.org/fhir/StructureDefinition/patient-birthTime",
          "valueDateTime" : "2019-01-09T18:23:00-07:00"
        }]
      },
      "deceasedBoolean" : true,
      "multipleBirthInteger" : 3
    }
  },
  {
    "fullUrl" : "http://www.example.org/fhir/Encounter/encounter-maternity-carmen-teresa-lee",
    "resource" : {
      "resourceType" : "Encounter",
      "id" : "encounter-maternity-carmen-teresa-lee",
      "meta" : {
        "profile" : ["http://hl7.org/fhir/us/bfdr/StructureDefinition/Encounter-maternity"]
      },
      "text" : {
        "status" : "extensions",
        "div" : "<div xmlns=\"http://www.w3.org/1999/xhtml\"><p><b>Generated Narrative: Encounter</b><a name=\"encounter-maternity-carmen-teresa-lee\"> </a></p><div style=\"display: inline-block; background-color: #d9e0e7; padding: 6px; margin: 4px; border: 1px solid #8da1b4; border-radius: 5px; line-height: 60%\"><p style=\"margin-bottom: 0px\">Resource Encounter &quot;encounter-maternity-carmen-teresa-lee&quot; </p><p style=\"margin-bottom: 0px\">Profile: <a href=\"StructureDefinition-Encounter-maternity.html\">Encounter - Maternity</a></p></div><p><b>Role Vital Records</b>: mother <span style=\"background: LightGoldenRodYellow; margin: 4px; border: 1px solid khaki\"> (<a href=\"http://terminology.hl7.org/5.0.0/CodeSystem-v3-RoleCode.html\">RoleCode</a>#MTH)</span></p><p><b>identifier</b>: id:\u00a08937015</p><p><b>status</b>: finished</p><p><b>class</b>: inpatient encounter (Details: http://terminology.hl7.org/CodeSystem/v3-ActCode code IMP = 'inpatient encounter', stated as 'inpatient encounter')</p><p><b>type</b>: Under Observation or Inpatient Care Services (Including Admission and Discharge Services) <span style=\"background: LightGoldenRodYellow; margin: 4px; border: 1px solid khaki\"> (<a href=\"http://terminology.hl7.org/5.0.0/CodeSystem-CPT.html\">Current Procedural Terminology (CPT®)</a>#99234)</span></p><p><b>subject</b>: <a href=\"#Patient_patient-mother-carmen-teresa-lee\">See above (Patient/patient-mother-carmen-teresa-lee: Patient - Mother (Carmen Teresa Lee))</a></p><h3>Participants</h3><table class=\"grid\"><tr><td style=\"display: none\">-</td><td><b>Type</b></td><td><b>Individual</b></td></tr><tr><td style=\"display: none\">*</td><td>Birth attendant [Extended Identifier] <span style=\"background: LightGoldenRodYellow; margin: 4px; border: 1px solid khaki\"> (<a href=\"https://loinc.org/\">LOINC</a>#87286-1)</span></td><td><a href=\"#Practitioner_practitioner-vital-records-janet-seito\">See above (Practitioner/practitioner-vital-records-janet-seito: Practitioner - Vital Records (Janet Seito, MD))</a></td></tr></table><p><b>period</b>: 2019-01-08 10:00:00-0700 --&gt; 2019-01-09 17:00:00-0700</p><h3>Locations</h3><table class=\"grid\"><tr><td style=\"display: none\">-</td><td><b>Location</b></td><td><b>PhysicalType</b></td></tr><tr><td style=\"display: none\">*</td><td><a href=\"#Location_location-south-hospital\">See above (Location/location-south-hospital: Location - US Core Location (South Hospital))</a></td><td>Hospital <span style=\"background: LightGoldenRodYellow; margin: 4px; border: 1px solid khaki\"> (<a href=\"https://browser.ihtsdotools.org/\">SNOMED CT</a>#22232009)</span></td></tr></table><p><b>serviceProvider</b>: <a href=\"#Organization_organization-south-hospital\">See above (Organization/organization-south-hospital: Organization - US Core Organization (South Hospital Organization))</a></p></div>"
      },
      "extension" : [{
        "url" : "http://hl7.org/fhir/us/vr-common-library/StructureDefinition/Extension-role-vr",
        "valueCodeableConcept" : {
          "coding" : [{
            "system" : "http://terminology.hl7.org/CodeSystem/v3-RoleCode",
            "code" : "MTH"
          }]
        }
      }],
      "identifier" : [{
        "system" : "http://hospital.smarthealthit.org",
        "value" : "8937015"
      }],
      "status" : "finished",
      "class" : {
        "system" : "http://terminology.hl7.org/CodeSystem/v3-ActCode",
        "code" : "IMP",
        "display" : "inpatient encounter"
      },
      "type" : [{
        "coding" : [{
          "system" : "http://www.ama-assn.org/go/cpt",
          "code" : "99234"
        }],
        "text" : "Under Observation or Inpatient Care Services (Including Admission and Discharge Services)"
      }],
      "subject" : {
        "reference" : "Patient/patient-mother-carmen-teresa-lee",
        "display" : "Patient - Mother (Carmen Teresa Lee)"
      },
      "participant" : [{
        "type" : [{
          "coding" : [{
            "system" : "http://loinc.org",
            "code" : "87286-1",
            "display" : "Birth attendant [Extended Identifier]"
          }]
        }],
        "individual" : {
          "reference" : "Practitioner/practitioner-vital-records-janet-seito",
          "display" : "Practitioner - Vital Records (Janet Seito, MD)"
        }
      }],
      "period" : {
        "start" : "2019-01-08T10:00:00-07:00",
        "end" : "2019-01-09T17:00:00-07:00"
      },
      "location" : [{
        "location" : {
          "reference" : "Location/location-south-hospital",
          "display" : "Location - US Core Location (South Hospital)"
        },
        "physicalType" : {
          "coding" : [{
            "system" : "http://snomed.info/sct",
            "code" : "22232009",
            "display" : "Hospital"
          }]
        }
      }],
      "serviceProvider" : {
        "reference" : "Organization/organization-south-hospital",
        "display" : "Organization - US Core Organization (South Hospital Organization)"
      }
    }
  },
  {
    "fullUrl" : "http://www.example.org/fhir/Organization/organization-jurisdictional-vital-records-office",
    "resource" : {
      "resourceType" : "Organization",
      "id" : "organization-jurisdictional-vital-records-office",
      "text" : {
        "status" : "generated",
        "div" : "<div xmlns=\"http://www.w3.org/1999/xhtml\"><p><b>Generated Narrative: Organization</b><a name=\"organization-jurisdictional-vital-records-office\"> </a></p><div style=\"display: inline-block; background-color: #d9e0e7; padding: 6px; margin: 4px; border: 1px solid #8da1b4; border-radius: 5px; line-height: 60%\"><p style=\"margin-bottom: 0px\">Resource Organization &quot;organization-jurisdictional-vital-records-office&quot; </p></div><p><b>active</b>: true</p><p><b>name</b>: Jurisdictional Vital Records Office</p></div>"
      },
      "active" : true,
      "name" : "Jurisdictional Vital Records Office"
    }
  },
  {
    "fullUrl" : "http://www.example.org/fhir/Patient/patient-mother-carmen-teresa-lee",
    "resource" : {
      "resourceType" : "Patient",
      "id" : "patient-mother-carmen-teresa-lee",
      "meta" : {
        "profile" : ["http://hl7.org/fhir/us/vr-common-library/StructureDefinition/Patient-mother-vr"]
      },
      "text" : {
        "status" : "extensions",
        "div" : "<div xmlns=\"http://www.w3.org/1999/xhtml\"><p><b>Generated Narrative: Patient</b><a name=\"patient-mother-carmen-teresa-lee\"> </a></p><div style=\"display: inline-block; background-color: #d9e0e7; padding: 6px; margin: 4px; border: 1px solid #8da1b4; border-radius: 5px; line-height: 60%\"><p style=\"margin-bottom: 0px\">Resource Patient &quot;patient-mother-carmen-teresa-lee&quot; </p><p style=\"margin-bottom: 0px\">Profile: <a href=\"https://build.fhir.org/ig/HL7/vr-common-library//StructureDefinition-Patient-mother-vr.html\">Patient - Mother Vital Records</a></p></div><blockquote><p><b>US Core Race Extension</b></p><blockquote><p><b>url</b></p><code>ombCategory</code></blockquote><p><b>value</b>: Black or African American (Details: urn:oid:2.16.840.1.113883.6.238 code 2054-5 = 'Black or African American', stated as 'Black or African American')</p><blockquote><p><b>url</b></p><code>text</code></blockquote><p><b>value</b>: Black or African America</p></blockquote><blockquote><p><b>US Core Ethnicity Extension</b></p><blockquote><p><b>url</b></p><code>ombCategory</code></blockquote><p><b>value</b>: Hispanic or Latino (Details: urn:oid:2.16.840.1.113883.6.238 code 2135-2 = 'Hispanic or Latino', stated as 'Hispanic or Latino')</p><blockquote><p><b>url</b></p><code>text</code></blockquote><p><b>value</b>: Hispanic or Latino</p></blockquote><p><b>US Core Birth Sex Extension</b>: F</p><p><b>Birth Place</b>: PR </p><p><b>identifier</b>: Medical Record Number:\u00a09992702\u00a0(use:\u00a0USUAL)</p><p><b>name</b>: Carmen Teresa Lee (OFFICIAL), Carmen Teresa Santos (MAIDEN)</p><p><b>gender</b>: female</p><p><b>birthDate</b>: 1986-02-15</p><p><b>address</b>: 3670 Miller Road Ann Arbor MI 48103 US (HOME)</p><h3>Links</h3><table class=\"grid\"><tr><td style=\"display: none\">-</td><td><b>Other</b></td><td><b>Type</b></td></tr><tr><td style=\"display: none\">*</td><td><a href=\"#RelatedPerson_relatedperson-mother-carmen-teresa-lee\">See above (RelatedPerson/relatedperson-mother-carmen-teresa-lee)</a></td><td>seealso</td></tr></table></div>"
      },
      "extension" : [{
        "extension" : [{
          "url" : "ombCategory",
          "valueCoding" : {
            "system" : "urn:oid:2.16.840.1.113883.6.238",
            "code" : "2054-5",
            "display" : "Black or African American"
          }
        },
        {
          "url" : "text",
          "valueString" : "Black or African America"
        }],
        "url" : "http://hl7.org/fhir/us/core/StructureDefinition/us-core-race"
      },
      {
        "extension" : [{
          "url" : "ombCategory",
          "valueCoding" : {
            "system" : "urn:oid:2.16.840.1.113883.6.238",
            "code" : "2135-2",
            "display" : "Hispanic or Latino"
          }
        },
        {
          "url" : "text",
          "valueString" : "Hispanic or Latino"
        }],
        "url" : "http://hl7.org/fhir/us/core/StructureDefinition/us-core-ethnicity"
      },
      {
        "url" : "http://hl7.org/fhir/us/core/StructureDefinition/us-core-birthsex",
        "valueCode" : "F"
      },
      {
        "url" : "http://hl7.org/fhir/StructureDefinition/patient-birthPlace",
        "valueAddress" : {
          "state" : "PR"
        }
      }],
      "identifier" : [{
        "use" : "usual",
        "type" : {
          "coding" : [{
            "system" : "http://terminology.hl7.org/CodeSystem/v2-0203",
            "code" : "MR",
            "display" : "Medical Record Number"
          }]
        },
        "system" : "http://hospital.smarthealthit.org",
        "value" : "9992702"
      }],
      "name" : [{
        "use" : "official",
        "family" : "Lee",
        "given" : ["Carmen",
        "Teresa"]
      },
      {
        "use" : "maiden",
        "family" : "Santos",
        "given" : ["Carmen",
        "Teresa"]
      }],
      "gender" : "female",
      "birthDate" : "1986-02-15",
      "address" : [{
        "extension" : [{
          "url" : "http://hl7.org/fhir/us/vr-common-library/StructureDefinition/Extension-within-city-limits-indicator-vr",
          "valueCoding" : {
            "system" : "http://terminology.hl7.org/CodeSystem/v2-0136",
            "code" : "N",
            "display" : "No"
          }
        }],
        "use" : "home",
        "line" : ["3670 Miller Road"],
        "city" : "Ann Arbor",
        "state" : "MI",
        "postalCode" : "48103",
        "country" : "US"
      }],
      "link" : [{
        "other" : {
          "reference" : "RelatedPerson/relatedperson-mother-carmen-teresa-lee"
        },
        "type" : "seealso"
      }]
    }
  },
  {
    "fullUrl" : "http://www.example.org/fhir/Observation/observation-date-of-first-prenatal-care-visit-carmen-teresa-lee",
    "resource" : {
      "resourceType" : "Observation",
      "id" : "observation-date-of-first-prenatal-care-visit-carmen-teresa-lee",
      "meta" : {
        "profile" : ["http://hl7.org/fhir/us/bfdr/StructureDefinition/Observation-date-of-first-prenatal-care-visit"]
      },
      "text" : {
        "status" : "generated",
        "div" : "<div xmlns=\"http://www.w3.org/1999/xhtml\"><p><b>Generated Narrative: Observation</b><a name=\"observation-date-of-first-prenatal-care-visit-carmen-teresa-lee\"> </a></p><div style=\"display: inline-block; background-color: #d9e0e7; padding: 6px; margin: 4px; border: 1px solid #8da1b4; border-radius: 5px; line-height: 60%\"><p style=\"margin-bottom: 0px\">Resource Observation &quot;observation-date-of-first-prenatal-care-visit-carmen-teresa-lee&quot; </p><p style=\"margin-bottom: 0px\">Profile: <a href=\"StructureDefinition-Observation-date-of-first-prenatal-care-visit.html\">Observation - Date of First Prenatal Care Visit</a></p></div><p><b>status</b>: final</p><p><b>code</b>: Date first prenatal visit <span style=\"background: LightGoldenRodYellow; margin: 4px; border: 1px solid khaki\"> (<a href=\"https://loinc.org/\">LOINC</a>#69044-6)</span></p><p><b>subject</b>: <a href=\"#Patient_patient-mother-carmen-teresa-lee\">See above (Patient/patient-mother-carmen-teresa-lee: Patient - Mother (Carmen Teresa Lee))</a></p><p><b>focus</b>: <a href=\"#Patient_patient-decedent-fetus-not-named\">See above (Patient/patient-decedent-fetus-not-named: Patient - Decedent Fetus (Fetus Not Named))</a></p><p><b>effective</b>: 2019-12-02</p><p><b>performer</b>: <a href=\"#Practitioner_practitioner-vital-records-janet-seito\">See above (Practitioner/practitioner-vital-records-janet-seito)</a></p><p><b>value</b>: 2018-05-18</p></div>"
      },
      "status" : "final",
      "code" : {
        "coding" : [{
          "system" : "http://loinc.org",
          "code" : "69044-6"
        }]
      },
      "subject" : {
        "reference" : "Patient/patient-mother-carmen-teresa-lee",
        "display" : "Patient - Mother (Carmen Teresa Lee)"
      },
      "focus" : [{
        "reference" : "Patient/patient-decedent-fetus-not-named",
        "display" : "Patient - Decedent Fetus (Fetus Not Named)"
      }],
      "effectiveDateTime" : "2019-12-02",
      "performer" : [{
        "reference" : "Practitioner/practitioner-vital-records-janet-seito"
      }],
      "valueDateTime" : "2018-05-18"
    }
  },
  {
    "fullUrl" : "http://www.example.org/fhir/Observation/observation-last-menstrual-period-carmen-teresa-lee",
    "resource" : {
      "resourceType" : "Observation",
      "id" : "observation-last-menstrual-period-carmen-teresa-lee",
      "meta" : {
        "profile" : ["http://hl7.org/fhir/us/bfdr/StructureDefinition/Observation-last-menstrual-period"]
      },
      "text" : {
        "status" : "generated",
        "div" : "<div xmlns=\"http://www.w3.org/1999/xhtml\"><p><b>Generated Narrative: Observation</b><a name=\"observation-last-menstrual-period-carmen-teresa-lee\"> </a></p><div style=\"display: inline-block; background-color: #d9e0e7; padding: 6px; margin: 4px; border: 1px solid #8da1b4; border-radius: 5px; line-height: 60%\"><p style=\"margin-bottom: 0px\">Resource Observation &quot;observation-last-menstrual-period-carmen-teresa-lee&quot; </p><p style=\"margin-bottom: 0px\">Profile: <a href=\"StructureDefinition-Observation-last-menstrual-period.html\">Observation - Last Menstrual Period</a></p></div><p><b>status</b>: final</p><p><b>code</b>: Last menstrual period start date <span style=\"background: LightGoldenRodYellow; margin: 4px; border: 1px solid khaki\"> (<a href=\"https://loinc.org/\">LOINC</a>#8665-2)</span></p><p><b>subject</b>: <a href=\"#Patient_patient-mother-carmen-teresa-lee\">See above (Patient/patient-mother-carmen-teresa-lee: Patient - Mother (Carmen Teresa Lee))</a></p><p><b>effective</b>: 2018-05-02</p><p><b>performer</b>: <a href=\"#Practitioner_practitioner-vital-records-janet-seito\">See above (Practitioner/practitioner-vital-records-janet-seito)</a></p><p><b>value</b>: 2018-04-18</p></div>"
      },
      "status" : "final",
      "code" : {
        "coding" : [{
          "system" : "http://loinc.org",
          "code" : "8665-2",
          "display" : "Last menstrual period start date"
        }],
        "text" : "Last menstrual period start date"
      },
      "subject" : {
        "reference" : "Patient/patient-mother-carmen-teresa-lee",
        "display" : "Patient - Mother (Carmen Teresa Lee)"
      },
      "effectiveDateTime" : "2018-05-02",
      "performer" : [{
        "reference" : "Practitioner/practitioner-vital-records-janet-seito"
      }],
      "valueDateTime" : "2018-04-18"
    }
  },
  {
    "fullUrl" : "http://www.example.org/fhir/Observation/observation-number-births-now-living-carmen-teresa-lee",
    "resource" : {
      "resourceType" : "Observation",
      "id" : "observation-number-births-now-living-carmen-teresa-lee",
      "meta" : {
        "profile" : ["http://hl7.org/fhir/us/bfdr/StructureDefinition/Observation-number-births-now-living"]
      },
      "text" : {
        "status" : "generated",
        "div" : "<div xmlns=\"http://www.w3.org/1999/xhtml\"><p><b>Generated Narrative: Observation</b><a name=\"observation-number-births-now-living-carmen-teresa-lee\"> </a></p><div style=\"display: inline-block; background-color: #d9e0e7; padding: 6px; margin: 4px; border: 1px solid #8da1b4; border-radius: 5px; line-height: 60%\"><p style=\"margin-bottom: 0px\">Resource Observation &quot;observation-number-births-now-living-carmen-teresa-lee&quot; </p><p style=\"margin-bottom: 0px\">Profile: <a href=\"StructureDefinition-Observation-number-births-now-living.html\">Observation - Number of Births Now Living</a></p></div><p><b>status</b>: final</p><p><b>code</b>: [#] Births.still living <span style=\"background: LightGoldenRodYellow; margin: 4px; border: 1px solid khaki\"> (<a href=\"https://loinc.org/\">LOINC</a>#11638-4)</span></p><p><b>subject</b>: <a href=\"#Patient_patient-mother-carmen-teresa-lee\">See above (Patient/patient-mother-carmen-teresa-lee: Patient - Mother (Carmen Teresa Lee))</a></p><p><b>effective</b>: 2019-12-02</p><p><b>performer</b>: <a href=\"#Practitioner_practitioner-vital-records-janet-seito\">See above (Practitioner/practitioner-vital-records-janet-seito)</a></p><p><b>value</b>: 1</p></div>"
      },
      "status" : "final",
      "code" : {
        "coding" : [{
          "system" : "http://loinc.org",
          "code" : "11638-4",
          "display" : "[#] Births.still living"
        }],
        "text" : "[#] Births.still living"
      },
      "subject" : {
        "reference" : "Patient/patient-mother-carmen-teresa-lee",
        "display" : "Patient - Mother (Carmen Teresa Lee)"
      },
      "effectiveDateTime" : "2019-12-02",
      "performer" : [{
        "reference" : "Practitioner/practitioner-vital-records-janet-seito"
      }],
      "valueInteger" : 1
    }
  },
  {
    "fullUrl" : "http://www.example.org/fhir/Observation/observation-number-births-now-dead-carmen-teresa-lee",
    "resource" : {
      "resourceType" : "Observation",
      "id" : "observation-number-births-now-dead-carmen-teresa-lee",
      "meta" : {
        "profile" : ["http://hl7.org/fhir/us/bfdr/StructureDefinition/Observation-number-births-now-dead"]
      },
      "text" : {
        "status" : "generated",
        "div" : "<div xmlns=\"http://www.w3.org/1999/xhtml\"><p><b>Generated Narrative: Observation</b><a name=\"observation-number-births-now-dead-carmen-teresa-lee\"> </a></p><div style=\"display: inline-block; background-color: #d9e0e7; padding: 6px; margin: 4px; border: 1px solid #8da1b4; border-radius: 5px; line-height: 60%\"><p style=\"margin-bottom: 0px\">Resource Observation &quot;observation-number-births-now-dead-carmen-teresa-lee&quot; </p><p style=\"margin-bottom: 0px\">Profile: <a href=\"StructureDefinition-Observation-number-births-now-dead.html\">Observation - Number of Births Now Dead</a></p></div><p><b>status</b>: final</p><p><b>code</b>: Previous live births now dead # <span style=\"background: LightGoldenRodYellow; margin: 4px; border: 1px solid khaki\"> (<a href=\"https://loinc.org/\">LOINC</a>#68496-9)</span></p><p><b>subject</b>: <a href=\"#Patient_patient-mother-carmen-teresa-lee\">See above (Patient/patient-mother-carmen-teresa-lee: Patient - Mother (Carmen Teresa Lee))</a></p><p><b>effective</b>: 2019-12-02</p><p><b>performer</b>: <a href=\"#Practitioner_practitioner-vital-records-janet-seito\">See above (Practitioner/practitioner-vital-records-janet-seito)</a></p><p><b>value</b>: 0</p></div>"
      },
      "status" : "final",
      "code" : {
        "coding" : [{
          "system" : "http://loinc.org",
          "code" : "68496-9",
          "display" : "Previous live births now dead #"
        }],
        "text" : "Previous live births now dead #"
      },
      "subject" : {
        "reference" : "Patient/patient-mother-carmen-teresa-lee",
        "display" : "Patient - Mother (Carmen Teresa Lee)"
      },
      "effectiveDateTime" : "2019-12-02",
      "performer" : [{
        "reference" : "Practitioner/practitioner-vital-records-janet-seito"
      }],
      "valueInteger" : 0
    }
  },
  {
    "fullUrl" : "http://www.example.org/fhir/Observation/observation-date-of-last-live-birth-carmen-teresa-lee",
    "resource" : {
      "resourceType" : "Observation",
      "id" : "observation-date-of-last-live-birth-carmen-teresa-lee",
      "meta" : {
        "profile" : ["http://hl7.org/fhir/us/bfdr/StructureDefinition/Observation-date-of-last-live-birth"]
      },
      "text" : {
        "status" : "generated",
        "div" : "<div xmlns=\"http://www.w3.org/1999/xhtml\"><p><b>Generated Narrative: Observation</b><a name=\"observation-date-of-last-live-birth-carmen-teresa-lee\"> </a></p><div style=\"display: inline-block; background-color: #d9e0e7; padding: 6px; margin: 4px; border: 1px solid #8da1b4; border-radius: 5px; line-height: 60%\"><p style=\"margin-bottom: 0px\">Resource Observation &quot;observation-date-of-last-live-birth-carmen-teresa-lee&quot; </p><p style=\"margin-bottom: 0px\">Profile: <a href=\"StructureDefinition-Observation-date-of-last-live-birth.html\">Observation - Date of Last Live Birth</a></p></div><p><b>status</b>: final</p><p><b>code</b>: Date of last live birth <span style=\"background: LightGoldenRodYellow; margin: 4px; border: 1px solid khaki\"> (<a href=\"https://loinc.org/\">LOINC</a>#68499-3 &quot;Date last live birth&quot;)</span></p><p><b>subject</b>: <a href=\"#Patient_patient-mother-carmen-teresa-lee\">See above (Patient/patient-mother-carmen-teresa-lee: Patient - Mother (Carmen Teresa Lee))</a></p><p><b>effective</b>: 2019-12-02</p><p><b>performer</b>: <a href=\"#Practitioner_practitioner-vital-records-janet-seito\">See above (Practitioner/practitioner-vital-records-janet-seito)</a></p><p><b>value</b>: 2016-01-28</p></div>"
      },
      "status" : "final",
      "code" : {
        "coding" : [{
          "system" : "http://loinc.org",
          "code" : "68499-3",
          "display" : "Date last live birth"
        }],
        "text" : "Date of last live birth"
      },
      "subject" : {
        "reference" : "Patient/patient-mother-carmen-teresa-lee",
        "display" : "Patient - Mother (Carmen Teresa Lee)"
      },
      "effectiveDateTime" : "2019-12-02",
      "performer" : [{
        "reference" : "Practitioner/practitioner-vital-records-janet-seito"
      }],
      "valueDateTime" : "2016-01-28"
    }
  },
  {
    "fullUrl" : "http://www.example.org/fhir/Observation/observation-mother-height-carmen-teresa-lee-w-edit",
    "resource" : {
      "resourceType" : "Observation",
      "id" : "observation-mother-height-carmen-teresa-lee-w-edit",
      "meta" : {
        "profile" : ["http://hl7.org/fhir/us/bfdr/StructureDefinition/Observation-mother-height"]
      },
      "text" : {
        "status" : "generated",
        "div" : "<div xmlns=\"http://www.w3.org/1999/xhtml\"><p><b>Generated Narrative: Observation</b><a name=\"observation-mother-height-carmen-teresa-lee-w-edit\"> </a></p><div style=\"display: inline-block; background-color: #d9e0e7; padding: 6px; margin: 4px; border: 1px solid #8da1b4; border-radius: 5px; line-height: 60%\"><p style=\"margin-bottom: 0px\">Resource Observation &quot;observation-mother-height-carmen-teresa-lee-w-edit&quot; </p><p style=\"margin-bottom: 0px\">Profile: <a href=\"StructureDefinition-Observation-mother-height.html\">Observation - Mother Height</a></p></div><p><b>status</b>: final</p><p><b>category</b>: Vital Signs <span style=\"background: LightGoldenRodYellow; margin: 4px; border: 1px solid khaki\"> (<a href=\"http://terminology.hl7.org/5.0.0/CodeSystem-observation-category.html\">Observation Category Codes</a>#vital-signs)</span></p><p><b>code</b>: Body height <span style=\"background: LightGoldenRodYellow; margin: 4px; border: 1px solid khaki\"> (<a href=\"https://loinc.org/\">LOINC</a>#8302-2)</span></p><p><b>subject</b>: <a href=\"#Patient_patient-mother-carmen-teresa-lee\">See above (Patient/patient-mother-carmen-teresa-lee: Patient - Mother (Carmen Teresa Lee))</a></p><p><b>effective</b>: 2019-01-10</p><p><b>performer</b>: <a href=\"#Patient_patient-mother-carmen-teresa-lee\">See above (Patient/patient-mother-carmen-teresa-lee)</a></p><p><b>value</b>: 56 in<span style=\"background: LightGoldenRodYellow\"> (Details: UCUM code [in_i] = '[in_i]')</span></p></div>"
      },
      "status" : "final",
      "category" : [{
        "coding" : [{
          "system" : "http://terminology.hl7.org/CodeSystem/observation-category",
          "code" : "vital-signs"
        }]
      }],
      "code" : {
        "coding" : [{
          "system" : "http://loinc.org",
          "code" : "8302-2"
        }]
      },
      "subject" : {
        "reference" : "Patient/patient-mother-carmen-teresa-lee",
        "display" : "Patient - Mother (Carmen Teresa Lee)"
      },
      "effectiveDateTime" : "2019-01-10",
      "performer" : [{
        "reference" : "Patient/patient-mother-carmen-teresa-lee"
      }],
      "valueQuantity" : {
        "extension" : [{
          "url" : "http://hl7.org/fhir/us/vr-common-library/StructureDefinition/BypassEditFlag",
          "valueCodeableConcept" : {
            "coding" : [{
              "system" : "http://hl7.org/fhir/us/vr-common-library/CodeSystem/CodeSystem-vr-edit-flags",
              "code" : "0",
              "display" : "Edit Passed"
            }]
          }
        }],
        "value" : 56,
        "unit" : "in",
        "system" : "http://unitsofmeasure.org",
        "code" : "[in_i]"
      }
    }
  },
  {
    "fullUrl" : "http://www.example.org/fhir/Observation/observation-mother-prepregnancy-weight-carmen-teresa-lee-w-edit",
    "resource" : {
      "resourceType" : "Observation",
      "id" : "observation-mother-prepregnancy-weight-carmen-teresa-lee-w-edit",
      "meta" : {
        "profile" : ["http://hl7.org/fhir/us/bfdr/StructureDefinition/Observation-mother-prepregnancy-weight"]
      },
      "text" : {
        "status" : "generated",
        "div" : "<div xmlns=\"http://www.w3.org/1999/xhtml\"><p><b>Generated Narrative: Observation</b><a name=\"observation-mother-prepregnancy-weight-carmen-teresa-lee-w-edit\"> </a></p><div style=\"display: inline-block; background-color: #d9e0e7; padding: 6px; margin: 4px; border: 1px solid #8da1b4; border-radius: 5px; line-height: 60%\"><p style=\"margin-bottom: 0px\">Resource Observation &quot;observation-mother-prepregnancy-weight-carmen-teresa-lee-w-edit&quot; </p><p style=\"margin-bottom: 0px\">Profile: <a href=\"StructureDefinition-Observation-mother-prepregnancy-weight.html\">Observation - Mother Prepregnancy Weight</a></p></div><p><b>status</b>: final</p><p><b>category</b>: Vital Signs <span style=\"background: LightGoldenRodYellow; margin: 4px; border: 1px solid khaki\"> (<a href=\"http://terminology.hl7.org/5.0.0/CodeSystem-observation-category.html\">Observation Category Codes</a>#vital-signs)</span></p><p><b>code</b>: Body weight --pre current pregnancy <span style=\"background: LightGoldenRodYellow; margin: 4px; border: 1px solid khaki\"> (<a href=\"https://loinc.org/\">LOINC</a>#56077-1)</span></p><p><b>subject</b>: <a href=\"#Patient_patient-mother-carmen-teresa-lee\">See above (Patient/patient-mother-carmen-teresa-lee: Patient - Mother (Carmen Teresa Lee))</a></p><p><b>effective</b>: 2019-12-02</p><p><b>performer</b>: <a href=\"#Practitioner_practitioner-vital-records-janet-seito\">See above (Practitioner/practitioner-vital-records-janet-seito)</a></p><p><b>value</b>: 180 [lb_av]<span style=\"background: LightGoldenRodYellow\"> (Details: UCUM code [lb_av] = '[lb_av]')</span></p></div>"
      },
      "status" : "final",
      "category" : [{
        "coding" : [{
          "system" : "http://terminology.hl7.org/CodeSystem/observation-category",
          "code" : "vital-signs",
          "display" : "Vital Signs"
        }]
      }],
      "code" : {
        "coding" : [{
          "system" : "http://loinc.org",
          "code" : "56077-1",
          "display" : "Body weight --pre current pregnancy"
        }]
      },
      "subject" : {
        "reference" : "Patient/patient-mother-carmen-teresa-lee",
        "display" : "Patient - Mother (Carmen Teresa Lee)"
      },
      "effectiveDateTime" : "2019-12-02",
      "performer" : [{
        "reference" : "Practitioner/practitioner-vital-records-janet-seito"
      }],
      "valueQuantity" : {
        "extension" : [{
          "url" : "http://hl7.org/fhir/us/vr-common-library/StructureDefinition/BypassEditFlag",
          "valueCodeableConcept" : {
            "coding" : [{
              "system" : "http://hl7.org/fhir/us/vr-common-library/CodeSystem/CodeSystem-vr-edit-flags",
              "code" : "0",
              "display" : "Edit Passed"
            }]
          }
        }],
        "value" : 180,
        "system" : "http://unitsofmeasure.org",
        "code" : "[lb_av]"
      }
    }
  },
  {
    "fullUrl" : "http://www.example.org/fhir/Observation/observation-mother-received-wic-food-carmen-teresa-lee",
    "resource" : {
      "resourceType" : "Observation",
      "id" : "observation-mother-received-wic-food-carmen-teresa-lee",
      "meta" : {
        "profile" : ["http://hl7.org/fhir/us/bfdr/StructureDefinition/Observation-mother-received-wic-food"]
      },
      "text" : {
        "status" : "generated",
        "div" : "<div xmlns=\"http://www.w3.org/1999/xhtml\"><p><b>Generated Narrative: Observation</b><a name=\"observation-mother-received-wic-food-carmen-teresa-lee\"> </a></p><div style=\"display: inline-block; background-color: #d9e0e7; padding: 6px; margin: 4px; border: 1px solid #8da1b4; border-radius: 5px; line-height: 60%\"><p style=\"margin-bottom: 0px\">Resource Observation &quot;observation-mother-received-wic-food-carmen-teresa-lee&quot; </p><p style=\"margin-bottom: 0px\">Profile: <a href=\"StructureDefinition-Observation-mother-received-wic-food.html\">Observation - Mother Recieved WIC Food</a></p></div><p><b>status</b>: final</p><p><b>code</b>: Mother WIC food recipient <span style=\"background: LightGoldenRodYellow; margin: 4px; border: 1px solid khaki\"> (<a href=\"https://loinc.org/\">LOINC</a>#87303-4)</span></p><p><b>subject</b>: <a href=\"#Patient_patient-mother-carmen-teresa-lee\">See above (Patient/patient-mother-carmen-teresa-lee: Patient - Mother (Carmen Teresa Lee))</a></p><p><b>focus</b>: <a href=\"#Patient_patient-decedent-fetus-not-named\">See above (Patient/patient-decedent-fetus-not-named: Patient - Decedent Fetus (Fetus Not Named))</a></p><p><b>effective</b>: 2019-12-02</p><p><b>performer</b>: <a href=\"#Patient_patient-mother-carmen-teresa-lee\">See above (Patient/patient-mother-carmen-teresa-lee)</a></p><p><b>value</b>: No <span style=\"background: LightGoldenRodYellow; margin: 4px; border: 1px solid khaki\"> (<a href=\"http://hl7.org/fhir/R4/v2/0136/index.html\">v2 Y/N Indicator</a>#N)</span></p></div>"
      },
      "status" : "final",
      "code" : {
        "coding" : [{
          "system" : "http://loinc.org",
          "code" : "87303-4"
        }]
      },
      "subject" : {
        "reference" : "Patient/patient-mother-carmen-teresa-lee",
        "display" : "Patient - Mother (Carmen Teresa Lee)"
      },
      "focus" : [{
        "reference" : "Patient/patient-decedent-fetus-not-named",
        "display" : "Patient - Decedent Fetus (Fetus Not Named)"
      }],
      "effectiveDateTime" : "2019-12-02",
      "performer" : [{
        "reference" : "Patient/patient-mother-carmen-teresa-lee"
      }],
      "valueCodeableConcept" : {
        "coding" : [{
          "system" : "http://terminology.hl7.org/CodeSystem/v2-0136",
          "code" : "N",
          "display" : "No"
        }]
      }
    }
  },
  {
    "fullUrl" : "http://www.example.org/fhir/Observation/observation-cig-smoking-pregnancy-1-carmen-teresa-lee",
    "resource" : {
      "resourceType" : "Observation",
      "id" : "observation-cig-smoking-pregnancy-1-carmen-teresa-lee",
      "meta" : {
        "profile" : ["http://hl7.org/fhir/us/bfdr/StructureDefinition/Observation-cigarette-smoking-before-during-pregnancy"]
      },
      "text" : {
        "status" : "generated",
        "div" : "<div xmlns=\"http://www.w3.org/1999/xhtml\"><p><b>Generated Narrative: Observation</b><a name=\"observation-cig-smoking-pregnancy-1-carmen-teresa-lee\"> </a></p><div style=\"display: inline-block; background-color: #d9e0e7; padding: 6px; margin: 4px; border: 1px solid #8da1b4; border-radius: 5px; line-height: 60%\"><p style=\"margin-bottom: 0px\">Resource Observation &quot;observation-cig-smoking-pregnancy-1-carmen-teresa-lee&quot; </p><p style=\"margin-bottom: 0px\">Profile: <a href=\"StructureDefinition-Observation-cigarette-smoking-before-during-pregnancy.html\">Observation - Cigarette Smoking Before and During Pregnancy</a></p></div><p><b>status</b>: final</p><p><b>code</b>: In the 3 months before you got pregnant, how many cigarettes did you smoke on an average day [PhenX] <span style=\"background: LightGoldenRodYellow; margin: 4px; border: 1px solid khaki\"> (<a href=\"https://loinc.org/\">LOINC</a>#64794-1)</span></p><p><b>subject</b>: <a href=\"#Patient_patient-mother-carmen-teresa-lee\">See above (Patient/patient-mother-carmen-teresa-lee: Patient - Mother (Carmen Teresa Lee))</a></p><p><b>focus</b>: <a href=\"#Patient_patient-decedent-fetus-not-named\">See above (Patient/patient-decedent-fetus-not-named: Patient - Decedent Fetus (Fetus Not Named))</a></p><p><b>effective</b>: 2019-12-02</p><p><b>performer</b>: <a href=\"#Patient_patient-mother-carmen-teresa-lee\">See above (Patient/patient-mother-carmen-teresa-lee)</a></p><p><b>value</b>: 0</p></div>"
      },
      "status" : "final",
      "code" : {
        "coding" : [{
          "system" : "http://loinc.org",
          "code" : "64794-1",
          "display" : "In the 3 months before you got pregnant, how many cigarettes did you smoke on an average day [PhenX]"
        }],
        "text" : "In the 3 months before you got pregnant, how many cigarettes did you smoke on an average day [PhenX]"
      },
      "subject" : {
        "reference" : "Patient/patient-mother-carmen-teresa-lee",
        "display" : "Patient - Mother (Carmen Teresa Lee)"
      },
      "focus" : [{
        "reference" : "Patient/patient-decedent-fetus-not-named",
        "display" : "Patient - Decedent Fetus (Fetus Not Named)"
      }],
      "effectiveDateTime" : "2019-12-02",
      "performer" : [{
        "reference" : "Patient/patient-mother-carmen-teresa-lee"
      }],
      "valueInteger" : 0
    }
  },
  {
    "fullUrl" : "http://www.example.org/fhir/Observation/observation-cig-smoking-pregnancy-2-carmen-teresa-lee",
    "resource" : {
      "resourceType" : "Observation",
      "id" : "observation-cig-smoking-pregnancy-2-carmen-teresa-lee",
      "meta" : {
        "profile" : ["http://hl7.org/fhir/us/bfdr/StructureDefinition/Observation-cigarette-smoking-before-during-pregnancy"]
      },
      "text" : {
        "status" : "generated",
        "div" : "<div xmlns=\"http://www.w3.org/1999/xhtml\"><p><b>Generated Narrative: Observation</b><a name=\"observation-cig-smoking-pregnancy-2-carmen-teresa-lee\"> </a></p><div style=\"display: inline-block; background-color: #d9e0e7; padding: 6px; margin: 4px; border: 1px solid #8da1b4; border-radius: 5px; line-height: 60%\"><p style=\"margin-bottom: 0px\">Resource Observation &quot;observation-cig-smoking-pregnancy-2-carmen-teresa-lee&quot; </p><p style=\"margin-bottom: 0px\">Profile: <a href=\"StructureDefinition-Observation-cigarette-smoking-before-during-pregnancy.html\">Observation - Cigarette Smoking Before and During Pregnancy</a></p></div><p><b>status</b>: final</p><p><b>code</b>: Cigarettes smoked per day by Mother--1st trimester <span style=\"background: LightGoldenRodYellow; margin: 4px; border: 1px solid khaki\"> (<a href=\"https://loinc.org/\">LOINC</a>#87298-6)</span></p><p><b>subject</b>: <a href=\"#Patient_patient-mother-carmen-teresa-lee\">See above (Patient/patient-mother-carmen-teresa-lee: Patient - Mother (Carmen Teresa Lee))</a></p><p><b>focus</b>: <a href=\"#Patient_patient-decedent-fetus-not-named\">See above (Patient/patient-decedent-fetus-not-named: Patient - Decedent Fetus (Fetus Not Named))</a></p><p><b>effective</b>: 2019-12-02</p><p><b>performer</b>: <a href=\"#Patient_patient-mother-carmen-teresa-lee\">See above (Patient/patient-mother-carmen-teresa-lee)</a></p><p><b>value</b>: 0</p></div>"
      },
      "status" : "final",
      "code" : {
        "coding" : [{
          "system" : "http://loinc.org",
          "code" : "87298-6",
          "display" : "Cigarettes smoked per day by Mother--1st trimester"
        }],
        "text" : "Cigarettes smoked per day by Mother--1st trimester"
      },
      "subject" : {
        "reference" : "Patient/patient-mother-carmen-teresa-lee",
        "display" : "Patient - Mother (Carmen Teresa Lee)"
      },
      "focus" : [{
        "reference" : "Patient/patient-decedent-fetus-not-named",
        "display" : "Patient - Decedent Fetus (Fetus Not Named)"
      }],
      "effectiveDateTime" : "2019-12-02",
      "performer" : [{
        "reference" : "Patient/patient-mother-carmen-teresa-lee"
      }],
      "valueInteger" : 0
    }
  },
  {
    "fullUrl" : "http://www.example.org/fhir/Observation/observation-cig-smoking-pregnancy-3-carmen-teresa-lee",
    "resource" : {
      "resourceType" : "Observation",
      "id" : "observation-cig-smoking-pregnancy-3-carmen-teresa-lee",
      "meta" : {
        "profile" : ["http://hl7.org/fhir/us/bfdr/StructureDefinition/Observation-cigarette-smoking-before-during-pregnancy"]
      },
      "text" : {
        "status" : "generated",
        "div" : "<div xmlns=\"http://www.w3.org/1999/xhtml\"><p><b>Generated Narrative: Observation</b><a name=\"observation-cig-smoking-pregnancy-3-carmen-teresa-lee\"> </a></p><div style=\"display: inline-block; background-color: #d9e0e7; padding: 6px; margin: 4px; border: 1px solid #8da1b4; border-radius: 5px; line-height: 60%\"><p style=\"margin-bottom: 0px\">Resource Observation &quot;observation-cig-smoking-pregnancy-3-carmen-teresa-lee&quot; </p><p style=\"margin-bottom: 0px\">Profile: <a href=\"StructureDefinition-Observation-cigarette-smoking-before-during-pregnancy.html\">Observation - Cigarette Smoking Before and During Pregnancy</a></p></div><p><b>status</b>: final</p><p><b>code</b>: Cigarettes smoked per day by Mother--2nd trimester <span style=\"background: LightGoldenRodYellow; margin: 4px; border: 1px solid khaki\"> (<a href=\"https://loinc.org/\">LOINC</a>#87299-4)</span></p><p><b>subject</b>: <a href=\"#Patient_patient-mother-carmen-teresa-lee\">See above (Patient/patient-mother-carmen-teresa-lee: Patient - Mother (Carmen Teresa Lee))</a></p><p><b>focus</b>: <a href=\"#Patient_patient-decedent-fetus-not-named\">See above (Patient/patient-decedent-fetus-not-named: Patient - Decedent Fetus (Fetus Not Named))</a></p><p><b>effective</b>: 2019-12-02</p><p><b>performer</b>: <a href=\"#Patient_patient-mother-carmen-teresa-lee\">See above (Patient/patient-mother-carmen-teresa-lee)</a></p><p><b>value</b>: 1</p></div>"
      },
      "status" : "final",
      "code" : {
        "coding" : [{
          "system" : "http://loinc.org",
          "code" : "87299-4",
          "display" : "Cigarettes smoked per day by Mother--2nd trimester"
        }],
        "text" : "Cigarettes smoked per day by Mother--2nd trimester"
      },
      "subject" : {
        "reference" : "Patient/patient-mother-carmen-teresa-lee",
        "display" : "Patient - Mother (Carmen Teresa Lee)"
      },
      "focus" : [{
        "reference" : "Patient/patient-decedent-fetus-not-named",
        "display" : "Patient - Decedent Fetus (Fetus Not Named)"
      }],
      "effectiveDateTime" : "2019-12-02",
      "performer" : [{
        "reference" : "Patient/patient-mother-carmen-teresa-lee"
      }],
      "valueInteger" : 1
    }
  },
  {
    "fullUrl" : "http://www.example.org/fhir/Observation/observation-cig-smoking-pregnancy-4-carmen-teresa-lee",
    "resource" : {
      "resourceType" : "Observation",
      "id" : "observation-cig-smoking-pregnancy-4-carmen-teresa-lee",
      "meta" : {
        "profile" : ["http://hl7.org/fhir/us/bfdr/StructureDefinition/Observation-cigarette-smoking-before-during-pregnancy"]
      },
      "text" : {
        "status" : "generated",
        "div" : "<div xmlns=\"http://www.w3.org/1999/xhtml\"><p><b>Generated Narrative: Observation</b><a name=\"observation-cig-smoking-pregnancy-4-carmen-teresa-lee\"> </a></p><div style=\"display: inline-block; background-color: #d9e0e7; padding: 6px; margin: 4px; border: 1px solid #8da1b4; border-radius: 5px; line-height: 60%\"><p style=\"margin-bottom: 0px\">Resource Observation &quot;observation-cig-smoking-pregnancy-4-carmen-teresa-lee&quot; </p><p style=\"margin-bottom: 0px\">Profile: <a href=\"StructureDefinition-Observation-cigarette-smoking-before-during-pregnancy.html\">Observation - Cigarette Smoking Before and During Pregnancy</a></p></div><p><b>status</b>: final</p><p><b>code</b>: In the last 3 months of your pregnancy, how many cigarettes did you smoke on an average day [PhenX] <span style=\"background: LightGoldenRodYellow; margin: 4px; border: 1px solid khaki\"> (<a href=\"https://loinc.org/\">LOINC</a>#64795-8)</span></p><p><b>subject</b>: <a href=\"#Patient_patient-mother-carmen-teresa-lee\">See above (Patient/patient-mother-carmen-teresa-lee: Patient - Mother (Carmen Teresa Lee))</a></p><p><b>focus</b>: <a href=\"#Patient_patient-decedent-fetus-not-named\">See above (Patient/patient-decedent-fetus-not-named: Patient - Decedent Fetus (Fetus Not Named))</a></p><p><b>effective</b>: 2019-12-02</p><p><b>performer</b>: <a href=\"#Patient_patient-mother-carmen-teresa-lee\">See above (Patient/patient-mother-carmen-teresa-lee)</a></p><p><b>value</b>: 0</p></div>"
      },
      "status" : "final",
      "code" : {
        "coding" : [{
          "system" : "http://loinc.org",
          "code" : "64795-8",
          "display" : "In the last 3 months of your pregnancy, how many cigarettes did you smoke on an average day [PhenX]"
        }],
        "text" : "In the last 3 months of your pregnancy, how many cigarettes did you smoke on an average day [PhenX]"
      },
      "subject" : {
        "reference" : "Patient/patient-mother-carmen-teresa-lee",
        "display" : "Patient - Mother (Carmen Teresa Lee)"
      },
      "focus" : [{
        "reference" : "Patient/patient-decedent-fetus-not-named",
        "display" : "Patient - Decedent Fetus (Fetus Not Named)"
      }],
      "effectiveDateTime" : "2019-12-02",
      "performer" : [{
        "reference" : "Patient/patient-mother-carmen-teresa-lee"
      }],
      "valueInteger" : 0
    }
  },
  {
    "fullUrl" : "http://www.example.org/fhir/Observation/observation-number-previous-cesareans-carmen-teresa-lee-w-edit",
    "resource" : {
      "resourceType" : "Observation",
      "id" : "observation-number-previous-cesareans-carmen-teresa-lee-w-edit",
      "meta" : {
        "profile" : ["http://hl7.org/fhir/us/bfdr/StructureDefinition/Observation-number-previous-cesareans"]
      },
      "text" : {
        "status" : "generated",
        "div" : "<div xmlns=\"http://www.w3.org/1999/xhtml\"><p><b>Generated Narrative: Observation</b><a name=\"observation-number-previous-cesareans-carmen-teresa-lee-w-edit\"> </a></p><div style=\"display: inline-block; background-color: #d9e0e7; padding: 6px; margin: 4px; border: 1px solid #8da1b4; border-radius: 5px; line-height: 60%\"><p style=\"margin-bottom: 0px\">Resource Observation &quot;observation-number-previous-cesareans-carmen-teresa-lee-w-edit&quot; </p><p style=\"margin-bottom: 0px\">Profile: <a href=\"StructureDefinition-Observation-number-previous-cesareans.html\">Observation - Number of Previous Cesareans</a></p></div><p><b>status</b>: final</p><p><b>code</b>: Previous cesarean deliveries # <span style=\"background: LightGoldenRodYellow; margin: 4px; border: 1px solid khaki\"> (<a href=\"https://loinc.org/\">LOINC</a>#68497-7)</span></p><p><b>subject</b>: <a href=\"#Patient_patient-mother-carmen-teresa-lee\">See above (Patient/patient-mother-carmen-teresa-lee: Patient - Mother (Carmen Teresa Lee))</a></p><p><b>effective</b>: 2019-12-02</p><p><b>performer</b>: <a href=\"#Practitioner_practitioner-vital-records-janet-seito\">See above (Practitioner/practitioner-vital-records-janet-seito)</a></p><p><b>value</b>: 1</p></div>"
      },
      "status" : "final",
      "code" : {
        "coding" : [{
          "system" : "http://loinc.org",
          "code" : "68497-7",
          "display" : "Previous cesarean deliveries #"
        }],
        "text" : "Previous cesarean deliveries #"
      },
      "subject" : {
        "reference" : "Patient/patient-mother-carmen-teresa-lee",
        "display" : "Patient - Mother (Carmen Teresa Lee)"
      },
      "effectiveDateTime" : "2019-12-02",
      "performer" : [{
        "reference" : "Practitioner/practitioner-vital-records-janet-seito"
      }],
      "valueInteger" : 1,
      "_valueInteger" : {
        "extension" : [{
          "url" : "http://hl7.org/fhir/us/vr-common-library/StructureDefinition/BypassEditFlag",
          "valueCodeableConcept" : {
            "coding" : [{
              "system" : "http://hl7.org/fhir/us/vr-common-library/CodeSystem/CodeSystem-vr-edit-flags",
              "code" : "0",
              "display" : "Edit Passed"
            }]
          }
        }]
      }
    }
  },
  {
    "fullUrl" : "http://www.example.org/fhir/Observation/observation-fetal-presentation-not-named",
    "resource" : {
      "resourceType" : "Observation",
      "id" : "observation-fetal-presentation-not-named",
      "meta" : {
        "profile" : ["http://hl7.org/fhir/us/bfdr/StructureDefinition/Observation-fetal-presentation"]
      },
      "text" : {
        "status" : "generated",
        "div" : "<div xmlns=\"http://www.w3.org/1999/xhtml\"><p><b>Generated Narrative: Observation</b><a name=\"observation-fetal-presentation-not-named\"> </a></p><div style=\"display: inline-block; background-color: #d9e0e7; padding: 6px; margin: 4px; border: 1px solid #8da1b4; border-radius: 5px; line-height: 60%\"><p style=\"margin-bottom: 0px\">Resource Observation &quot;observation-fetal-presentation-not-named&quot; </p><p style=\"margin-bottom: 0px\">Profile: <a href=\"StructureDefinition-Observation-fetal-presentation.html\">Observation - Fetal Presentation at Birth/Delivery</a></p></div><p><b>status</b>: final</p><p><b>code</b>: Fetal presentation--at birth [US Standard Certificate of Live Birth] <span style=\"background: LightGoldenRodYellow; margin: 4px; border: 1px solid khaki\"> (<a href=\"https://loinc.org/\">LOINC</a>#73761-9)</span></p><p><b>subject</b>: <a href=\"#Patient_patient-decedent-fetus-not-named\">See above (Patient/patient-decedent-fetus-not-named: Patient - Decedent Fetus (Fetus Not Named))</a></p><p><b>effective</b>: 2019-12-02</p><p><b>performer</b>: <a href=\"#Practitioner_practitioner-vital-records-janet-seito\">See above (Practitioner/practitioner-vital-records-janet-seito)</a></p><p><b>value</b>: Breech presentation (finding) <span style=\"background: LightGoldenRodYellow; margin: 4px; border: 1px solid khaki\"> (<a href=\"https://browser.ihtsdotools.org/\">SNOMED CT</a>#6096002)</span></p></div>"
      },
      "status" : "final",
      "code" : {
        "coding" : [{
          "system" : "http://loinc.org",
          "code" : "73761-9"
        }]
      },
      "subject" : {
        "reference" : "Patient/patient-decedent-fetus-not-named",
        "display" : "Patient - Decedent Fetus (Fetus Not Named)"
      },
      "effectiveDateTime" : "2019-12-02",
      "performer" : [{
        "reference" : "Practitioner/practitioner-vital-records-janet-seito"
      }],
      "valueCodeableConcept" : {
        "coding" : [{
          "system" : "http://snomed.info/sct",
          "code" : "6096002",
          "display" : "Breech presentation (finding)"
        }]
      }
    }
  },
  {
    "fullUrl" : "http://www.example.org/fhir/Procedure/procedure-final-route-method-delivery-not-named",
    "resource" : {
      "resourceType" : "Procedure",
      "id" : "procedure-final-route-method-delivery-not-named",
      "meta" : {
        "profile" : ["http://hl7.org/fhir/us/bfdr/StructureDefinition/Procedure-final-route-method-delivery"]
      },
      "text" : {
        "status" : "generated",
        "div" : "<div xmlns=\"http://www.w3.org/1999/xhtml\"><p><b>Generated Narrative: Procedure</b><a name=\"procedure-final-route-method-delivery-not-named\"> </a></p><div style=\"display: inline-block; background-color: #d9e0e7; padding: 6px; margin: 4px; border: 1px solid #8da1b4; border-radius: 5px; line-height: 60%\"><p style=\"margin-bottom: 0px\">Resource Procedure &quot;procedure-final-route-method-delivery-not-named&quot; </p><p style=\"margin-bottom: 0px\">Profile: <a href=\"StructureDefinition-Procedure-final-route-method-delivery.html\">Procedure - Final Route and Method of Delivery</a></p></div><p><b>status</b>: completed</p><p><b>code</b>: Spontaneous vaginal delivery <span style=\"background: LightGoldenRodYellow; margin: 4px; border: 1px solid khaki\"> (<a href=\"https://browser.ihtsdotools.org/\">SNOMED CT</a>#700000006 &quot;Vaginal delivery of fetus (procedure)&quot;)</span></p><p><b>subject</b>: <a href=\"#Patient_patient-mother-carmen-teresa-lee\">See above (Patient/patient-mother-carmen-teresa-lee: Patient - Mother (Carmen Teresa Lee))</a></p><p><b>performed</b>: 2019-01-19 18:00:00-0700 --&gt; 2019-01-19 18:23:00-0700</p></div>"
      },
      "status" : "completed",
      "code" : {
        "coding" : [{
          "system" : "http://snomed.info/sct",
          "code" : "700000006",
          "display" : "Vaginal delivery of fetus (procedure)"
        }],
        "text" : "Spontaneous vaginal delivery"
      },
      "subject" : {
        "reference" : "Patient/patient-mother-carmen-teresa-lee",
        "display" : "Patient - Mother (Carmen Teresa Lee)"
      },
      "performedPeriod" : {
        "start" : "2019-01-19T18:00:00-07:00",
        "end" : "2019-01-19T18:23:00-07:00"
      }
    }
  },
  {
    "fullUrl" : "http://www.example.org/fhir/Observation/observation-birth-weight-not-named-w-edit",
    "resource" : {
      "resourceType" : "Observation",
      "id" : "observation-birth-weight-not-named-w-edit",
      "meta" : {
        "profile" : ["http://hl7.org/fhir/us/bfdr/StructureDefinition/Observation-birth-weight"]
      },
      "text" : {
        "status" : "generated",
        "div" : "<div xmlns=\"http://www.w3.org/1999/xhtml\"><p><b>Generated Narrative: Observation</b><a name=\"observation-birth-weight-not-named-w-edit\"> </a></p><div style=\"display: inline-block; background-color: #d9e0e7; padding: 6px; margin: 4px; border: 1px solid #8da1b4; border-radius: 5px; line-height: 60%\"><p style=\"margin-bottom: 0px\">Resource Observation &quot;observation-birth-weight-not-named-w-edit&quot; </p><p style=\"margin-bottom: 0px\">Profile: <a href=\"StructureDefinition-Observation-birth-weight.html\">Observation - Birth Weight</a></p></div><p><b>status</b>: final</p><p><b>category</b>: Vital Signs <span style=\"background: LightGoldenRodYellow; margin: 4px; border: 1px solid khaki\"> (<a href=\"http://terminology.hl7.org/5.0.0/CodeSystem-observation-category.html\">Observation Category Codes</a>#vital-signs)</span></p><p><b>code</b>: Birth weight Measured <span style=\"background: LightGoldenRodYellow; margin: 4px; border: 1px solid khaki\"> (<a href=\"https://loinc.org/\">LOINC</a>#8339-4)</span></p><p><b>subject</b>: <a href=\"#Patient_patient-decedent-fetus-not-named\">See above (Patient/patient-decedent-fetus-not-named: Patient - Decedent Fetus (Fetus Not Named))</a></p><p><b>effective</b>: 2019-02-10</p><p><b>performer</b>: <a href=\"#Organization_organization-jurisdictional-vital-records-office\">See above (Organization/organization-jurisdictional-vital-records-office)</a></p><p><b>value</b>: 1530 g<span style=\"background: LightGoldenRodYellow\"> (Details: UCUM code g = 'g')</span></p></div>"
      },
      "status" : "final",
      "category" : [{
        "coding" : [{
          "system" : "http://terminology.hl7.org/CodeSystem/observation-category",
          "code" : "vital-signs"
        }]
      }],
      "code" : {
        "coding" : [{
          "system" : "http://loinc.org",
          "code" : "8339-4"
        }]
      },
      "subject" : {
        "reference" : "Patient/patient-decedent-fetus-not-named",
        "display" : "Patient - Decedent Fetus (Fetus Not Named)"
      },
      "effectiveDateTime" : "2019-02-10",
      "performer" : [{
        "reference" : "Organization/organization-jurisdictional-vital-records-office"
      }],
      "valueQuantity" : {
        "extension" : [{
          "url" : "http://hl7.org/fhir/us/vr-common-library/StructureDefinition/BypassEditFlag",
          "valueCodeableConcept" : {
            "coding" : [{
              "system" : "http://hl7.org/fhir/us/vr-common-library/CodeSystem/CodeSystem-vr-edit-flags",
              "code" : "0off",
              "display" : "Off"
            }]
          }
        }],
        "value" : 1530,
        "system" : "http://unitsofmeasure.org",
        "code" : "g"
      }
    }
  },
  {
    "fullUrl" : "http://www.example.org/fhir/Observation/observation-gestational-age-at-delivery-not-named-w-edit",
    "resource" : {
      "resourceType" : "Observation",
      "id" : "observation-gestational-age-at-delivery-not-named-w-edit",
      "meta" : {
        "profile" : ["http://hl7.org/fhir/us/bfdr/StructureDefinition/Observation-gestational-age-at-delivery"]
      },
      "text" : {
        "status" : "generated",
        "div" : "<div xmlns=\"http://www.w3.org/1999/xhtml\"><p><b>Generated Narrative: Observation</b><a name=\"observation-gestational-age-at-delivery-not-named-w-edit\"> </a></p><div style=\"display: inline-block; background-color: #d9e0e7; padding: 6px; margin: 4px; border: 1px solid #8da1b4; border-radius: 5px; line-height: 60%\"><p style=\"margin-bottom: 0px\">Resource Observation &quot;observation-gestational-age-at-delivery-not-named-w-edit&quot; </p><p style=\"margin-bottom: 0px\">Profile: <a href=\"StructureDefinition-Observation-gestational-age-at-delivery.html\">Observation - Gestational Age at Delivery</a></p></div><p><b>status</b>: final</p><p><b>code</b>: Gestational age Estimated <span style=\"background: LightGoldenRodYellow; margin: 4px; border: 1px solid khaki\"> (<a href=\"https://loinc.org/\">LOINC</a>#11884-4)</span></p><p><b>subject</b>: <a href=\"#Patient_patient-decedent-fetus-not-named\">See above (Patient/patient-decedent-fetus-not-named: Patient - Decedent Fetus (Fetus Not Named))</a></p><p><b>effective</b>: 2019-12-02</p><p><b>performer</b>: <a href=\"#Practitioner_practitioner-vital-records-janet-seito\">See above (Practitioner/practitioner-vital-records-janet-seito)</a></p><p><b>value</b>: 20 wk<span style=\"background: LightGoldenRodYellow\"> (Details: UCUM code wk = 'wk')</span></p></div>"
      },
      "status" : "final",
      "code" : {
        "coding" : [{
          "system" : "http://loinc.org",
          "code" : "11884-4",
          "display" : "Gestational age Estimated"
        }]
      },
      "subject" : {
        "reference" : "Patient/patient-decedent-fetus-not-named",
        "display" : "Patient - Decedent Fetus (Fetus Not Named)"
      },
      "effectiveDateTime" : "2019-12-02",
      "performer" : [{
        "reference" : "Practitioner/practitioner-vital-records-janet-seito"
      }],
      "valueQuantity" : {
        "extension" : [{
          "url" : "http://hl7.org/fhir/us/vr-common-library/StructureDefinition/BypassEditFlag",
          "valueCodeableConcept" : {
            "coding" : [{
              "system" : "http://hl7.org/fhir/us/vr-common-library/CodeSystem/CodeSystem-vr-edit-flags",
              "code" : "0off",
              "display" : "Off"
            }]
          }
        }],
        "value" : 20,
        "system" : "http://unitsofmeasure.org",
        "code" : "wk"
      }
    }
  },
  {
    "fullUrl" : "http://www.example.org/fhir/Condition/condition-fetal-death-cause-or-condition-not-named",
    "resource" : {
      "resourceType" : "Condition",
      "id" : "condition-fetal-death-cause-or-condition-not-named",
      "meta" : {
        "profile" : ["http://hl7.org/fhir/us/bfdr/StructureDefinition/Condition-fetal-death-cause-or-condition"]
      },
      "text" : {
        "status" : "generated",
        "div" : "<div xmlns=\"http://www.w3.org/1999/xhtml\"><p><b>Generated Narrative: Condition</b><a name=\"condition-fetal-death-cause-or-condition-not-named\"> </a></p><div style=\"display: inline-block; background-color: #d9e0e7; padding: 6px; margin: 4px; border: 1px solid #8da1b4; border-radius: 5px; line-height: 60%\"><p style=\"margin-bottom: 0px\">Resource Condition &quot;condition-fetal-death-cause-or-condition-not-named&quot; </p><p style=\"margin-bottom: 0px\">Profile: <a href=\"StructureDefinition-Condition-fetal-death-cause-or-condition.html\">Condition - Fetal Death Cause or Condition</a></p></div><p><b>category</b>: Encounter Diagnosis <span style=\"background: LightGoldenRodYellow; margin: 4px; border: 1px solid khaki\"> (<a href=\"http://terminology.hl7.org/5.0.0/CodeSystem-condition-category.html\">Condition Category Codes</a>#encounter-diagnosis)</span>, Initiating cause or condition of fetal death [US Standard Report of Fetal Death] <span style=\"background: LightGoldenRodYellow; margin: 4px; border: 1px solid khaki\"> (<a href=\"https://loinc.org/\">LOINC</a>#76060-3)</span></p><p><b>code</b>: Premature rupture of membranes (disorder) <span style=\"background: LightGoldenRodYellow; margin: 4px; border: 1px solid khaki\"> (<a href=\"https://browser.ihtsdotools.org/\">SNOMED CT</a>#44223004)</span></p><p><b>subject</b>: <a href=\"#Patient_patient-decedent-fetus-not-named\">See above (Patient/patient-decedent-fetus-not-named: Patient - Decedent Fetus (Fetus Not Named))</a></p></div>"
      },
      "category" : [{
        "coding" : [{
          "system" : "http://terminology.hl7.org/CodeSystem/condition-category",
          "code" : "encounter-diagnosis",
          "display" : "Encounter Diagnosis"
        }]
      },
      {
        "coding" : [{
          "system" : "http://loinc.org",
          "code" : "76060-3",
          "display" : "Initiating cause or condition of fetal death [US Standard Report of Fetal Death]"
        }]
      }],
      "code" : {
        "coding" : [{
          "system" : "http://snomed.info/sct",
          "code" : "44223004",
          "display" : "Premature rupture of membranes (disorder)"
        }],
        "text" : "Premature rupture of membranes (disorder)"
      },
      "subject" : {
        "reference" : "Patient/patient-decedent-fetus-not-named",
        "display" : "Patient - Decedent Fetus (Fetus Not Named)"
      }
    }
  },
  {
    "fullUrl" : "http://www.example.org/fhir/Condition/condition-fetal-death-other-significant-cause-not-named",
    "resource" : {
      "resourceType" : "Condition",
      "id" : "condition-fetal-death-other-significant-cause-not-named",
      "meta" : {
        "profile" : ["http://hl7.org/fhir/us/bfdr/StructureDefinition/Condition-fetal-death-other-cause-or-condition"]
      },
      "text" : {
        "status" : "generated",
        "div" : "<div xmlns=\"http://www.w3.org/1999/xhtml\"><p><b>Generated Narrative: Condition</b><a name=\"condition-fetal-death-other-significant-cause-not-named\"> </a></p><div style=\"display: inline-block; background-color: #d9e0e7; padding: 6px; margin: 4px; border: 1px solid #8da1b4; border-radius: 5px; line-height: 60%\"><p style=\"margin-bottom: 0px\">Resource Condition &quot;condition-fetal-death-other-significant-cause-not-named&quot; </p><p style=\"margin-bottom: 0px\">Profile: <a href=\"StructureDefinition-Condition-fetal-death-other-cause-or-condition.html\">Condition - Fetal Death Other Cause or Condition</a></p></div><p><b>category</b>: Encounter Diagnosis <span style=\"background: LightGoldenRodYellow; margin: 4px; border: 1px solid khaki\"> (<a href=\"http://terminology.hl7.org/5.0.0/CodeSystem-condition-category.html\">Condition Category Codes</a>#encounter-diagnosis)</span>, Other significant causes or conditions of fetal death [US Standard Report of Fetal Death] <span style=\"background: LightGoldenRodYellow; margin: 4px; border: 1px solid khaki\"> (<a href=\"https://loinc.org/\">LOINC</a>#76061-1)</span></p><p><b>code</b>: Placental insufficiency (disorder) <span style=\"background: LightGoldenRodYellow; margin: 4px; border: 1px solid khaki\"> (<a href=\"https://browser.ihtsdotools.org/\">SNOMED CT</a>#237292005)</span></p><p><b>subject</b>: <a href=\"#Patient_patient-decedent-fetus-not-named\">See above (Patient/patient-decedent-fetus-not-named: Patient - Decedent Fetus (Fetus Not Named))</a></p></div>"
      },
      "category" : [{
        "coding" : [{
          "system" : "http://terminology.hl7.org/CodeSystem/condition-category",
          "code" : "encounter-diagnosis",
          "display" : "Encounter Diagnosis"
        }]
      },
      {
        "coding" : [{
          "system" : "http://loinc.org",
          "code" : "76061-1",
          "display" : "Other significant causes or conditions of fetal death [US Standard Report of Fetal Death]"
        }]
      }],
      "code" : {
        "coding" : [{
          "system" : "http://snomed.info/sct",
          "code" : "237292005",
          "display" : "Placental insufficiency (disorder)"
        }],
        "text" : "Placental insufficiency (disorder)"
      },
      "subject" : {
        "reference" : "Patient/patient-decedent-fetus-not-named",
        "display" : "Patient - Decedent Fetus (Fetus Not Named)"
      }
    }
  },
  {
    "fullUrl" : "http://www.example.org/fhir/Observation/observation-fetal-death-time-point-not-named",
    "resource" : {
      "resourceType" : "Observation",
      "id" : "observation-fetal-death-time-point-not-named",
      "meta" : {
        "profile" : ["http://hl7.org/fhir/us/bfdr/StructureDefinition/Observation-fetal-death-time-point"]
      },
      "text" : {
        "status" : "generated",
        "div" : "<div xmlns=\"http://www.w3.org/1999/xhtml\"><p><b>Generated Narrative: Observation</b><a name=\"observation-fetal-death-time-point-not-named\"> </a></p><div style=\"display: inline-block; background-color: #d9e0e7; padding: 6px; margin: 4px; border: 1px solid #8da1b4; border-radius: 5px; line-height: 60%\"><p style=\"margin-bottom: 0px\">Resource Observation &quot;observation-fetal-death-time-point-not-named&quot; </p><p style=\"margin-bottom: 0px\">Profile: <a href=\"StructureDefinition-Observation-fetal-death-time-point.html\">Observation - Fetal Death Time Point</a></p></div><p><b>status</b>: final</p><p><b>code</b>: Estimated timing of fetal death [US Standard Report of Fetal Death] <span style=\"background: LightGoldenRodYellow; margin: 4px; border: 1px solid khaki\"> (<a href=\"https://loinc.org/\">LOINC</a>#73811-2)</span></p><p><b>subject</b>: <a href=\"#Patient_patient-decedent-fetus-not-named\">See above (Patient/patient-decedent-fetus-not-named: Patient - Decedent Fetus (Fetus Not Named))</a></p><p><b>effective</b>: 2019-12-02</p><p><b>performer</b>: <a href=\"#Practitioner_practitioner-vital-records-janet-seito\">See above (Practitioner/practitioner-vital-records-janet-seito)</a></p><p><b>value</b>: Fetal intrapartum death after first assessment (event) <span style=\"background: LightGoldenRodYellow; margin: 4px; border: 1px solid khaki\"> (<a href=\"https://browser.ihtsdotools.org/\">SNOMED CT</a>#434631000124100)</span></p></div>"
      },
      "status" : "final",
      "code" : {
        "coding" : [{
          "system" : "http://loinc.org",
          "code" : "73811-2"
        }]
      },
      "subject" : {
        "reference" : "Patient/patient-decedent-fetus-not-named",
        "display" : "Patient - Decedent Fetus (Fetus Not Named)"
      },
      "effectiveDateTime" : "2019-12-02",
      "performer" : [{
        "reference" : "Practitioner/practitioner-vital-records-janet-seito"
      }],
      "valueCodeableConcept" : {
        "coding" : [{
          "system" : "http://snomed.info/sct",
          "code" : "434631000124100",
          "display" : "Fetal intrapartum death after first assessment (event)"
        }]
      }
    }
  },
  {
    "fullUrl" : "http://www.example.org/fhir/Observation/observation-autopsy-performed-not-named",
    "resource" : {
      "resourceType" : "Observation",
      "id" : "observation-autopsy-performed-not-named",
      "meta" : {
        "profile" : ["http://hl7.org/fhir/us/vr-common-library/StructureDefinition/Observation-autopsy-performed-indicator-vr"]
      },
      "text" : {
        "status" : "generated",
        "div" : "<div xmlns=\"http://www.w3.org/1999/xhtml\"><p><b>Generated Narrative: Observation</b><a name=\"observation-autopsy-performed-not-named\"> </a></p><div style=\"display: inline-block; background-color: #d9e0e7; padding: 6px; margin: 4px; border: 1px solid #8da1b4; border-radius: 5px; line-height: 60%\"><p style=\"margin-bottom: 0px\">Resource Observation &quot;observation-autopsy-performed-not-named&quot; </p><p style=\"margin-bottom: 0px\">Profile: <a href=\"https://build.fhir.org/ig/HL7/vr-common-library//StructureDefinition-Observation-autopsy-performed-indicator-vr.html\">Observation - Autopsy Performed Indicator Vital Records</a></p></div><p><b>status</b>: final</p><p><b>code</b>: Autopsy was performed <span style=\"background: LightGoldenRodYellow; margin: 4px; border: 1px solid khaki\"> (<a href=\"https://loinc.org/\">LOINC</a>#85699-7)</span></p><p><b>subject</b>: <a href=\"#Patient_patient-decedent-fetus-not-named\">See above (Patient/patient-decedent-fetus-not-named: Patient - Decedent Fetus (Fetus Not Named))</a></p><p><b>effective</b>: 2019-12-02</p><p><b>performer</b>: <a href=\"#Practitioner_practitioner-vital-records-janet-seito\">See above (Practitioner/practitioner-vital-records-janet-seito)</a></p><p><b>value</b>: Yes <span style=\"background: LightGoldenRodYellow; margin: 4px; border: 1px solid khaki\"> (<a href=\"http://hl7.org/fhir/R4/v2/0136/index.html\">v2 Y/N Indicator</a>#Y)</span></p></div>"
      },
      "status" : "final",
      "code" : {
        "coding" : [{
          "system" : "http://loinc.org",
          "code" : "85699-7",
          "display" : "Autopsy was performed"
        }]
      },
      "subject" : {
        "reference" : "Patient/patient-decedent-fetus-not-named",
        "display" : "Patient - Decedent Fetus (Fetus Not Named)"
      },
      "effectiveDateTime" : "2019-12-02",
      "performer" : [{
        "reference" : "Practitioner/practitioner-vital-records-janet-seito"
      }],
      "valueCodeableConcept" : {
        "coding" : [{
          "system" : "http://terminology.hl7.org/CodeSystem/v2-0136",
          "code" : "Y",
          "display" : "Yes"
        }]
      }
    }
  },
  {
    "fullUrl" : "http://www.example.org/fhir/Observation/observation-histological-placental-exam-performed-not-named",
    "resource" : {
      "resourceType" : "Observation",
      "id" : "observation-histological-placental-exam-performed-not-named",
      "meta" : {
        "profile" : ["http://hl7.org/fhir/us/bfdr/StructureDefinition/Observation-histological-placental-exam-performed"]
      },
      "text" : {
        "status" : "generated",
        "div" : "<div xmlns=\"http://www.w3.org/1999/xhtml\"><p><b>Generated Narrative: Observation</b><a name=\"observation-histological-placental-exam-performed-not-named\"> </a></p><div style=\"display: inline-block; background-color: #d9e0e7; padding: 6px; margin: 4px; border: 1px solid #8da1b4; border-radius: 5px; line-height: 60%\"><p style=\"margin-bottom: 0px\">Resource Observation &quot;observation-histological-placental-exam-performed-not-named&quot; </p><p style=\"margin-bottom: 0px\">Profile: <a href=\"StructureDefinition-Observation-histological-placental-exam-performed.html\">Observation - Histological Placental Exam Performed</a></p></div><p><b>status</b>: final</p><p><b>code</b>: Histological placental examination was performed [US Standard Report of Fetal Death] <span style=\"background: LightGoldenRodYellow; margin: 4px; border: 1px solid khaki\"> (<a href=\"https://loinc.org/\">LOINC</a>#73767-6)</span></p><p><b>subject</b>: <a href=\"#Patient_patient-decedent-fetus-not-named\">See above (Patient/patient-decedent-fetus-not-named: Patient - Decedent Fetus (Fetus Not Named))</a></p><p><b>effective</b>: 2019-12-02</p><p><b>performer</b>: <a href=\"#Practitioner_practitioner-vital-records-janet-seito\">See above (Practitioner/practitioner-vital-records-janet-seito)</a></p><p><b>value</b>: Performed <span style=\"background: LightGoldenRodYellow; margin: 4px; border: 1px solid khaki\"> (<a href=\"https://browser.ihtsdotools.org/\">SNOMED CT</a>#398166005)</span></p></div>"
      },
      "status" : "final",
      "code" : {
        "coding" : [{
          "system" : "http://loinc.org",
          "code" : "73767-6"
        }]
      },
      "subject" : {
        "reference" : "Patient/patient-decedent-fetus-not-named",
        "display" : "Patient - Decedent Fetus (Fetus Not Named)"
      },
      "effectiveDateTime" : "2019-12-02",
      "performer" : [{
        "reference" : "Practitioner/practitioner-vital-records-janet-seito"
      }],
      "valueCodeableConcept" : {
        "coding" : [{
          "system" : "http://snomed.info/sct",
          "code" : "398166005",
          "display" : "Performed"
        }]
      }
    }
  },
  {
    "fullUrl" : "http://www.example.org/fhir/Observation/observation-autopsy-histological-exam-results-used-not-named",
    "resource" : {
      "resourceType" : "Observation",
      "id" : "observation-autopsy-histological-exam-results-used-not-named",
      "meta" : {
        "profile" : ["http://hl7.org/fhir/us/bfdr/StructureDefinition/Observation-autopsy-histological-exam-results-used"]
      },
      "text" : {
        "status" : "generated",
        "div" : "<div xmlns=\"http://www.w3.org/1999/xhtml\"><p><b>Generated Narrative: Observation</b><a name=\"observation-autopsy-histological-exam-results-used-not-named\"> </a></p><div style=\"display: inline-block; background-color: #d9e0e7; padding: 6px; margin: 4px; border: 1px solid #8da1b4; border-radius: 5px; line-height: 60%\"><p style=\"margin-bottom: 0px\">Resource Observation &quot;observation-autopsy-histological-exam-results-used-not-named&quot; </p><p style=\"margin-bottom: 0px\">Profile: <a href=\"StructureDefinition-Observation-autopsy-histological-exam-results-used.html\">Observation - Autopsy or Histological Exam Results Used</a></p></div><p><b>status</b>: final</p><p><b>code</b>: Autopsy or histological placental examination results were used [US Standard Report of Fetal Death] <span style=\"background: LightGoldenRodYellow; margin: 4px; border: 1px solid khaki\"> (<a href=\"https://loinc.org/\">LOINC</a>#74498-7)</span></p><p><b>subject</b>: <a href=\"#Patient_patient-decedent-fetus-not-named\">See above (Patient/patient-decedent-fetus-not-named: Patient - Decedent Fetus (Fetus Not Named))</a></p><p><b>effective</b>: 2019-12-02</p><p><b>performer</b>: <a href=\"#Practitioner_practitioner-vital-records-janet-seito\">See above (Practitioner/practitioner-vital-records-janet-seito)</a></p><p><b>value</b>: Yes <span style=\"background: LightGoldenRodYellow; margin: 4px; border: 1px solid khaki\"> (<a href=\"http://hl7.org/fhir/R4/v2/0136/index.html\">v2 Y/N Indicator</a>#Y)</span></p></div>"
      },
      "status" : "final",
      "code" : {
        "coding" : [{
          "system" : "http://loinc.org",
          "code" : "74498-7",
          "display" : "Autopsy or histological placental examination results were used [US Standard Report of Fetal Death]"
        }]
      },
      "subject" : {
        "reference" : "Patient/patient-decedent-fetus-not-named",
        "display" : "Patient - Decedent Fetus (Fetus Not Named)"
      },
      "effectiveDateTime" : "2019-12-02",
      "performer" : [{
        "reference" : "Practitioner/practitioner-vital-records-janet-seito"
      }],
      "valueCodeableConcept" : {
        "coding" : [{
          "system" : "http://terminology.hl7.org/CodeSystem/v2-0136",
          "code" : "Y",
          "display" : "Yes"
        }]
      }
    }
  },
  {
    "fullUrl" : "http://www.example.org/fhir/Observation/observation-number-deaths-this-delivery-carmen-teresa-lee",
    "resource" : {
      "resourceType" : "Observation",
      "id" : "observation-number-deaths-this-delivery-carmen-teresa-lee",
      "meta" : {
        "profile" : ["http://hl7.org/fhir/us/bfdr/StructureDefinition/Observation-number-fetal-deaths-this-delivery"]
      },
      "text" : {
        "status" : "generated",
        "div" : "<div xmlns=\"http://www.w3.org/1999/xhtml\"><p><b>Generated Narrative: Observation</b><a name=\"observation-number-deaths-this-delivery-carmen-teresa-lee\"> </a></p><div style=\"display: inline-block; background-color: #d9e0e7; padding: 6px; margin: 4px; border: 1px solid #8da1b4; border-radius: 5px; line-height: 60%\"><p style=\"margin-bottom: 0px\">Resource Observation &quot;observation-number-deaths-this-delivery-carmen-teresa-lee&quot; </p><p style=\"margin-bottom: 0px\">Profile: <a href=\"StructureDefinition-Observation-number-fetal-deaths-this-delivery.html\">Observation - Number of Fetal Deaths This Delivery</a></p></div><p><b>status</b>: final</p><p><b>code</b>: Number of fetal deaths delivered <span style=\"background: LightGoldenRodYellow; margin: 4px; border: 1px solid khaki\"> (<a href=\"https://loinc.org/\">LOINC</a>#73772-6)</span></p><p><b>subject</b>: <a href=\"#Patient_patient-mother-carmen-teresa-lee\">See above (Patient/patient-mother-carmen-teresa-lee: Patient - Mother (Carmen Teresa Lee))</a></p><p><b>focus</b>: <a href=\"#Patient_patient-decedent-fetus-not-named\">See above (Patient/patient-decedent-fetus-not-named: Patient - Decedent Fetus (Fetus Not Named))</a></p><p><b>effective</b>: 2019-12-02</p><p><b>performer</b>: <a href=\"#Practitioner_practitioner-vital-records-janet-seito\">See above (Practitioner/practitioner-vital-records-janet-seito)</a></p><p><b>value</b>: 1</p></div>"
      },
      "status" : "final",
      "code" : {
        "coding" : [{
          "system" : "http://loinc.org",
          "code" : "73772-6",
          "display" : "Number of fetal deaths delivered"
        }],
        "text" : "Number of fetal deaths delivered"
      },
      "subject" : {
        "reference" : "Patient/patient-mother-carmen-teresa-lee",
        "display" : "Patient - Mother (Carmen Teresa Lee)"
      },
      "focus" : [{
        "reference" : "Patient/patient-decedent-fetus-not-named",
        "display" : "Patient - Decedent Fetus (Fetus Not Named)"
      }],
      "effectiveDateTime" : "2019-12-02",
      "performer" : [{
        "reference" : "Practitioner/practitioner-vital-records-janet-seito"
      }],
      "valueInteger" : 1
    }
  },
  {
    "fullUrl" : "http://www.example.org/fhir/Observation/observation-parent-education-level-carmen-teresa-lee-w-edit",
    "resource" : {
      "resourceType" : "Observation",
      "id" : "observation-parent-education-level-carmen-teresa-lee-w-edit",
      "meta" : {
        "profile" : ["http://hl7.org/fhir/us/vr-common-library/StructureDefinition/Observation-education-level-vr"]
      },
      "text" : {
        "status" : "generated",
        "div" : "<div xmlns=\"http://www.w3.org/1999/xhtml\"><p><b>Generated Narrative: Observation</b><a name=\"observation-parent-education-level-carmen-teresa-lee-w-edit\"> </a></p><div style=\"display: inline-block; background-color: #d9e0e7; padding: 6px; margin: 4px; border: 1px solid #8da1b4; border-radius: 5px; line-height: 60%\"><p style=\"margin-bottom: 0px\">Resource Observation &quot;observation-parent-education-level-carmen-teresa-lee-w-edit&quot; </p><p style=\"margin-bottom: 0px\">Profile: <a href=\"https://build.fhir.org/ig/HL7/vr-common-library//StructureDefinition-Observation-education-level-vr.html\">Observation - Education Level Vital Records</a></p></div><p><b>status</b>: final</p><p><b>code</b>: Highest level of education Mother <span style=\"background: LightGoldenRodYellow; margin: 4px; border: 1px solid khaki\"> (<a href=\"https://loinc.org/\">LOINC</a>#57712-2)</span></p><p><b>subject</b>: <a href=\"#Patient_patient-decedent-fetus-not-named\">See above (Patient/patient-decedent-fetus-not-named: Patient - Decedent Fetus (Fetus Not Named))</a></p><p><b>focus</b>: <a href=\"#Patient_patient-mother-carmen-teresa-lee\">See above (Patient/patient-mother-carmen-teresa-lee: Patient - Mother (Carmen Teresa Lee))</a></p><p><b>effective</b>: 2019-12-02</p><p><b>performer</b>: <a href=\"#Patient_patient-mother-carmen-teresa-lee\">See above (Patient/patient-mother-carmen-teresa-lee)</a></p><p><b>value</b>: 9th through 12th grade; no diploma <span style=\"background: LightGoldenRodYellow; margin: 4px; border: 1px solid khaki\"> (<a href=\"http://terminology.hl7.org/5.0.0/CodeSystem-v3-EducationLevel.html\">Education Level</a>#SEC &quot;Some secondary or high school education&quot;)</span></p></div>"
      },
      "status" : "final",
      "code" : {
        "coding" : [{
          "system" : "http://loinc.org",
          "code" : "57712-2",
          "display" : "Highest level of education Mother"
        }]
      },
      "subject" : {
        "reference" : "Patient/patient-decedent-fetus-not-named",
        "display" : "Patient - Decedent Fetus (Fetus Not Named)"
      },
      "focus" : [{
        "reference" : "Patient/patient-mother-carmen-teresa-lee",
        "display" : "Patient - Mother (Carmen Teresa Lee)"
      }],
      "effectiveDateTime" : "2019-12-02",
      "performer" : [{
        "reference" : "Patient/patient-mother-carmen-teresa-lee"
      }],
      "valueCodeableConcept" : {
        "extension" : [{
          "url" : "http://hl7.org/fhir/us/vr-common-library/StructureDefinition/BypassEditFlag",
          "valueCodeableConcept" : {
            "coding" : [{
              "system" : "http://hl7.org/fhir/us/vr-common-library/CodeSystem/CodeSystem-vr-edit-flags",
              "code" : "0",
              "display" : "Edit Passed"
            }]
          }
        }],
        "coding" : [{
          "system" : "http://terminology.hl7.org/CodeSystem/v3-EducationLevel",
          "code" : "SEC",
          "display" : "Some secondary or high school education"
        }],
        "text" : "9th through 12th grade; no diploma"
      }
    }
  },
  {
    "fullUrl" : "http://www.example.org/fhir/Observation/observation-usual-work-carmen-teresa-lee",
    "resource" : {
      "resourceType" : "Observation",
      "id" : "observation-usual-work-carmen-teresa-lee",
      "meta" : {
        "profile" : ["http://hl7.org/fhir/us/vr-common-library/StructureDefinition/Observation-usual-work-vr"]
      },
      "text" : {
        "status" : "extensions",
        "div" : "<div xmlns=\"http://www.w3.org/1999/xhtml\"><p><b>Generated Narrative: Observation</b><a name=\"observation-usual-work-carmen-teresa-lee\"> </a></p><div style=\"display: inline-block; background-color: #d9e0e7; padding: 6px; margin: 4px; border: 1px solid #8da1b4; border-radius: 5px; line-height: 60%\"><p style=\"margin-bottom: 0px\">Resource Observation &quot;observation-usual-work-carmen-teresa-lee&quot; </p><p style=\"margin-bottom: 0px\">Profile: <a href=\"https://build.fhir.org/ig/HL7/vr-common-library//StructureDefinition-Observation-usual-work-vr.html\">Observation - Usual Work</a></p></div><p><b>Role Vital Records</b>: mother <span style=\"background: LightGoldenRodYellow; margin: 4px; border: 1px solid khaki\"> (<a href=\"http://terminology.hl7.org/5.0.0/CodeSystem-v3-RoleCode.html\">RoleCode</a>#MTH)</span></p><p><b>status</b>: final</p><p><b>code</b>: History of Usual occupation <span style=\"background: LightGoldenRodYellow; margin: 4px; border: 1px solid khaki\"> (<a href=\"https://loinc.org/\">LOINC</a>#21843-8)</span></p><p><b>subject</b>: <a href=\"#Patient_patient-decedent-fetus-not-named\">See above (Patient/patient-decedent-fetus-not-named)</a></p><p><b>focus</b>: <a href=\"#RelatedPerson_relatedperson-mother-carmen-teresa-lee\">See above (RelatedPerson/relatedperson-mother-carmen-teresa-lee)</a></p><p><b>value</b>: Secretary <span style=\"background: LightGoldenRodYellow; margin: 4px; border: 1px solid khaki\"> ()</span></p><h3>Components</h3><table class=\"grid\"><tr><td style=\"display: none\">-</td><td><b>Code</b></td><td><b>Value[x]</b></td></tr><tr><td style=\"display: none\">*</td><td>History of Usual industry <span style=\"background: LightGoldenRodYellow; margin: 4px; border: 1px solid khaki\"> (<a href=\"https://loinc.org/\">LOINC</a>#21844-6)</span></td><td>State Agency <span style=\"background: LightGoldenRodYellow; margin: 4px; border: 1px solid khaki\"> ()</span></td></tr></table></div>"
      },
      "extension" : [{
        "url" : "http://hl7.org/fhir/us/vr-common-library/StructureDefinition/Extension-role-vr",
        "valueCodeableConcept" : {
          "coding" : [{
            "system" : "http://terminology.hl7.org/CodeSystem/v3-RoleCode",
            "code" : "MTH",
            "display" : "mother"
          }]
        }
      }],
      "status" : "final",
      "code" : {
        "coding" : [{
          "system" : "http://loinc.org",
          "code" : "21843-8"
        }]
      },
      "subject" : {
        "reference" : "Patient/patient-decedent-fetus-not-named"
      },
      "focus" : [{
        "reference" : "RelatedPerson/relatedperson-mother-carmen-teresa-lee"
      }],
      "valueCodeableConcept" : {
        "text" : "Secretary"
      },
      "component" : [{
        "code" : {
          "coding" : [{
            "system" : "http://loinc.org",
            "code" : "21844-6"
          }]
        },
        "valueCodeableConcept" : {
          "text" : "State Agency"
        }
      }]
    }
  },
  {
    "fullUrl" : "http://www.example.org/fhir/Observation/observation-usual-work-tom-yan-lee",
    "resource" : {
      "resourceType" : "Observation",
      "id" : "observation-usual-work-tom-yan-lee",
      "meta" : {
        "profile" : ["http://hl7.org/fhir/us/vr-common-library/StructureDefinition/Observation-usual-work-vr"]
      },
      "text" : {
        "status" : "extensions",
        "div" : "<div xmlns=\"http://www.w3.org/1999/xhtml\"><p><b>Generated Narrative: Observation</b><a name=\"observation-usual-work-tom-yan-lee\"> </a></p><div style=\"display: inline-block; background-color: #d9e0e7; padding: 6px; margin: 4px; border: 1px solid #8da1b4; border-radius: 5px; line-height: 60%\"><p style=\"margin-bottom: 0px\">Resource Observation &quot;observation-usual-work-tom-yan-lee&quot; </p><p style=\"margin-bottom: 0px\">Profile: <a href=\"https://build.fhir.org/ig/HL7/vr-common-library//StructureDefinition-Observation-usual-work-vr.html\">Observation - Usual Work</a></p></div><p><b>Role Vital Records</b>: father <span style=\"background: LightGoldenRodYellow; margin: 4px; border: 1px solid khaki\"> (<a href=\"http://terminology.hl7.org/5.0.0/CodeSystem-v3-RoleCode.html\">RoleCode</a>#FTH)</span></p><p><b>status</b>: final</p><p><b>code</b>: History of Usual occupation <span style=\"background: LightGoldenRodYellow; margin: 4px; border: 1px solid khaki\"> (<a href=\"https://loinc.org/\">LOINC</a>#21843-8)</span></p><p><b>subject</b>: <a href=\"#Patient_patient-decedent-fetus-not-named\">See above (Patient/patient-decedent-fetus-not-named)</a></p><p><b>focus</b>: <a href=\"#RelatedPerson_relatedperson-father-natural-tom-yan-lee\">See above (RelatedPerson/relatedperson-father-natural-tom-yan-lee)</a></p><p><b>value</b>: Teaching Assistant <span style=\"background: LightGoldenRodYellow; margin: 4px; border: 1px solid khaki\"> ()</span></p><h3>Components</h3><table class=\"grid\"><tr><td style=\"display: none\">-</td><td><b>Code</b></td><td><b>Value[x]</b></td></tr><tr><td style=\"display: none\">*</td><td>History of Usual industry <span style=\"background: LightGoldenRodYellow; margin: 4px; border: 1px solid khaki\"> (<a href=\"https://loinc.org/\">LOINC</a>#21844-6)</span></td><td>Elementary and Secondary Schools <span style=\"background: LightGoldenRodYellow; margin: 4px; border: 1px solid khaki\"> ()</span></td></tr></table></div>"
      },
      "extension" : [{
        "url" : "http://hl7.org/fhir/us/vr-common-library/StructureDefinition/Extension-role-vr",
        "valueCodeableConcept" : {
          "coding" : [{
            "system" : "http://terminology.hl7.org/CodeSystem/v3-RoleCode",
            "code" : "FTH",
            "display" : "father"
          }]
        }
      }],
      "status" : "final",
      "code" : {
        "coding" : [{
          "system" : "http://loinc.org",
          "code" : "21843-8"
        }]
      },
      "subject" : {
        "reference" : "Patient/patient-decedent-fetus-not-named"
      },
      "focus" : [{
        "reference" : "RelatedPerson/relatedperson-father-natural-tom-yan-lee"
      }],
      "valueCodeableConcept" : {
        "text" : "Teaching Assistant"
      },
      "component" : [{
        "code" : {
          "coding" : [{
            "system" : "http://loinc.org",
            "code" : "21844-6"
          }]
        },
        "valueCodeableConcept" : {
          "text" : "Elementary and Secondary Schools"
        }
      }]
    }
  },
  {
    "fullUrl" : "http://www.example.org/fhir/Observation/observation-input-race-and-ethnicity-carmen-teresa-lee",
    "resource" : {
      "resourceType" : "Observation",
      "id" : "observation-input-race-and-ethnicity-carmen-teresa-lee",
      "meta" : {
        "profile" : ["http://hl7.org/fhir/us/vr-common-library/StructureDefinition/input-race-and-ethnicity-vr"]
      },
      "text" : {
        "status" : "generated",
        "div" : "<div xmlns=\"http://www.w3.org/1999/xhtml\"><p><b>Generated Narrative: Observation</b><a name=\"observation-input-race-and-ethnicity-carmen-teresa-lee\"> </a></p><div style=\"display: inline-block; background-color: #d9e0e7; padding: 6px; margin: 4px; border: 1px solid #8da1b4; border-radius: 5px; line-height: 60%\"><p style=\"margin-bottom: 0px\">Resource Observation &quot;observation-input-race-and-ethnicity-carmen-teresa-lee&quot; </p><p style=\"margin-bottom: 0px\">Profile: <a href=\"https://build.fhir.org/ig/HL7/vr-common-library//StructureDefinition-input-race-and-ethnicity-vr.html\">Observation - Input Race and Ethnicity Vital Records</a></p></div><p><b>status</b>: final</p><p><b>code</b>: Mother Input Race and Ethnicity <span style=\"background: LightGoldenRodYellow; margin: 4px; border: 1px solid khaki\"> (<a href=\"https://build.fhir.org/ig/HL7/vr-common-library//CodeSystem-CodeSystem-local-observation-codes-vr.html\">Local Observation Codes Vital Records</a>#inputraceandethnicityMother)</span></p><p><b>subject</b>: <a href=\"#Patient_patient-mother-carmen-teresa-lee\">See above (Patient/patient-mother-carmen-teresa-lee: Patient - Mother (Carmen Teresa Lee))</a></p><blockquote><p><b>component</b></p><p><b>code</b>: White <span style=\"background: LightGoldenRodYellow; margin: 4px; border: 1px solid khaki\"> (<a href=\"https://build.fhir.org/ig/HL7/vr-common-library//CodeSystem-codesystem-vr-component.html\">Local Component Codes</a>#White)</span></p><p><b>value</b>: true</p></blockquote><blockquote><p><b>component</b></p><p><b>code</b>: Black Or African American <span style=\"background: LightGoldenRodYellow; margin: 4px; border: 1px solid khaki\"> (<a href=\"https://build.fhir.org/ig/HL7/vr-common-library//CodeSystem-codesystem-vr-component.html\">Local Component Codes</a>#BlackOrAfricanAmerican)</span></p><p><b>value</b>: true</p></blockquote><blockquote><p><b>component</b></p><p><b>code</b>: American Indian Or Alaska Native <span style=\"background: LightGoldenRodYellow; margin: 4px; border: 1px solid khaki\"> (<a href=\"https://build.fhir.org/ig/HL7/vr-common-library//CodeSystem-codesystem-vr-component.html\">Local Component Codes</a>#AmericanIndianOrAlaskanNative)</span></p><p><b>value</b>: true</p></blockquote><blockquote><p><b>component</b></p><p><b>code</b>: Asian Indian <span style=\"background: LightGoldenRodYellow; margin: 4px; border: 1px solid khaki\"> (<a href=\"https://build.fhir.org/ig/HL7/vr-common-library//CodeSystem-codesystem-vr-component.html\">Local Component Codes</a>#AsianIndian)</span></p><p><b>value</b>: false</p></blockquote><blockquote><p><b>component</b></p><p><b>code</b>: Chinese <span style=\"background: LightGoldenRodYellow; margin: 4px; border: 1px solid khaki\"> (<a href=\"https://build.fhir.org/ig/HL7/vr-common-library//CodeSystem-codesystem-vr-component.html\">Local Component Codes</a>#Chinese)</span></p><p><b>value</b>: false</p></blockquote><blockquote><p><b>component</b></p><p><b>code</b>: Filipino <span style=\"background: LightGoldenRodYellow; margin: 4px; border: 1px solid khaki\"> (<a href=\"https://build.fhir.org/ig/HL7/vr-common-library//CodeSystem-codesystem-vr-component.html\">Local Component Codes</a>#Filipino)</span></p><p><b>value</b>: false</p></blockquote><blockquote><p><b>component</b></p><p><b>code</b>: Japanese <span style=\"background: LightGoldenRodYellow; margin: 4px; border: 1px solid khaki\"> (<a href=\"https://build.fhir.org/ig/HL7/vr-common-library//CodeSystem-codesystem-vr-component.html\">Local Component Codes</a>#Japanese)</span></p><p><b>value</b>: false</p></blockquote><blockquote><p><b>component</b></p><p><b>code</b>: Korean <span style=\"background: LightGoldenRodYellow; margin: 4px; border: 1px solid khaki\"> (<a href=\"https://build.fhir.org/ig/HL7/vr-common-library//CodeSystem-codesystem-vr-component.html\">Local Component Codes</a>#Korean)</span></p><p><b>value</b>: false</p></blockquote><blockquote><p><b>component</b></p><p><b>code</b>: Vietnamese <span style=\"background: LightGoldenRodYellow; margin: 4px; border: 1px solid khaki\"> (<a href=\"https://build.fhir.org/ig/HL7/vr-common-library//CodeSystem-codesystem-vr-component.html\">Local Component Codes</a>#Vietnamese)</span></p><p><b>value</b>: false</p></blockquote><blockquote><p><b>component</b></p><p><b>code</b>: Other Asian <span style=\"background: LightGoldenRodYellow; margin: 4px; border: 1px solid khaki\"> (<a href=\"https://build.fhir.org/ig/HL7/vr-common-library//CodeSystem-codesystem-vr-component.html\">Local Component Codes</a>#OtherAsian)</span></p><p><b>value</b>: false</p></blockquote><blockquote><p><b>component</b></p><p><b>code</b>: Native Hawaiian <span style=\"background: LightGoldenRodYellow; margin: 4px; border: 1px solid khaki\"> (<a href=\"https://build.fhir.org/ig/HL7/vr-common-library//CodeSystem-codesystem-vr-component.html\">Local Component Codes</a>#NativeHawaiian)</span></p><p><b>value</b>: false</p></blockquote><blockquote><p><b>component</b></p><p><b>code</b>: Guamanian Or Chamorro <span style=\"background: LightGoldenRodYellow; margin: 4px; border: 1px solid khaki\"> (<a href=\"https://build.fhir.org/ig/HL7/vr-common-library//CodeSystem-codesystem-vr-component.html\">Local Component Codes</a>#GuamanianOrChamorro)</span></p><p><b>value</b>: false</p></blockquote><blockquote><p><b>component</b></p><p><b>code</b>: Samoan <span style=\"background: LightGoldenRodYellow; margin: 4px; border: 1px solid khaki\"> (<a href=\"https://build.fhir.org/ig/HL7/vr-common-library//CodeSystem-codesystem-vr-component.html\">Local Component Codes</a>#Samoan)</span></p><p><b>value</b>: false</p></blockquote><blockquote><p><b>component</b></p><p><b>code</b>: Other Pacific Islander <span style=\"background: LightGoldenRodYellow; margin: 4px; border: 1px solid khaki\"> (<a href=\"https://build.fhir.org/ig/HL7/vr-common-library//CodeSystem-codesystem-vr-component.html\">Local Component Codes</a>#OtherPacificIslander)</span></p><p><b>value</b>: false</p></blockquote><blockquote><p><b>component</b></p><p><b>code</b>: Other Race <span style=\"background: LightGoldenRodYellow; margin: 4px; border: 1px solid khaki\"> (<a href=\"https://build.fhir.org/ig/HL7/vr-common-library//CodeSystem-codesystem-vr-component.html\">Local Component Codes</a>#OtherRace)</span></p><p><b>value</b>: false</p></blockquote><blockquote><p><b>component</b></p><p><b>code</b>: First Other Asian Literal <span style=\"background: LightGoldenRodYellow; margin: 4px; border: 1px solid khaki\"> (<a href=\"https://build.fhir.org/ig/HL7/vr-common-library//CodeSystem-codesystem-vr-component.html\">Local Component Codes</a>#FirstOtherAsianLiteral)</span></p><p><b>value</b>: Malaysian</p></blockquote><blockquote><p><b>component</b></p><p><b>code</b>: First American Indian Or Alaska Native Literal <span style=\"background: LightGoldenRodYellow; margin: 4px; border: 1px solid khaki\"> (<a href=\"https://build.fhir.org/ig/HL7/vr-common-library//CodeSystem-codesystem-vr-component.html\">Local Component Codes</a>#FirstAmericanIndianOrAlaskanNativeLiteral)</span></p><p><b>value</b>: Arikara</p></blockquote><blockquote><p><b>component</b></p><p><b>code</b>: Hispanic Mexican <span style=\"background: LightGoldenRodYellow; margin: 4px; border: 1px solid khaki\"> (<a href=\"https://build.fhir.org/ig/HL7/vr-common-library//CodeSystem-codesystem-vr-component.html\">Local Component Codes</a>#HispanicMexican)</span></p><p><b>value</b>: Yes <span style=\"background: LightGoldenRodYellow; margin: 4px; border: 1px solid khaki\"> (<a href=\"http://hl7.org/fhir/R4/v2/0136/index.html\">v2 Y/N Indicator</a>#Y)</span></p></blockquote><blockquote><p><b>component</b></p><p><b>code</b>: Hispanic Cuban <span style=\"background: LightGoldenRodYellow; margin: 4px; border: 1px solid khaki\"> (<a href=\"https://build.fhir.org/ig/HL7/vr-common-library//CodeSystem-codesystem-vr-component.html\">Local Component Codes</a>#HispanicCuban)</span></p><p><b>value</b>: Yes <span style=\"background: LightGoldenRodYellow; margin: 4px; border: 1px solid khaki\"> (<a href=\"http://hl7.org/fhir/R4/v2/0136/index.html\">v2 Y/N Indicator</a>#Y)</span></p></blockquote><blockquote><p><b>component</b></p><p><b>code</b>: Hispanic Puerto Rican <span style=\"background: LightGoldenRodYellow; margin: 4px; border: 1px solid khaki\"> (<a href=\"https://build.fhir.org/ig/HL7/vr-common-library//CodeSystem-codesystem-vr-component.html\">Local Component Codes</a>#HispanicPuertoRican)</span></p><p><b>value</b>: Yes <span style=\"background: LightGoldenRodYellow; margin: 4px; border: 1px solid khaki\"> (<a href=\"http://hl7.org/fhir/R4/v2/0136/index.html\">v2 Y/N Indicator</a>#Y)</span></p></blockquote><blockquote><p><b>component</b></p><p><b>code</b>: Hispanic Other <span style=\"background: LightGoldenRodYellow; margin: 4px; border: 1px solid khaki\"> (<a href=\"https://build.fhir.org/ig/HL7/vr-common-library//CodeSystem-codesystem-vr-component.html\">Local Component Codes</a>#HispanicOther)</span></p><p><b>value</b>: No <span style=\"background: LightGoldenRodYellow; margin: 4px; border: 1px solid khaki\"> (<a href=\"http://hl7.org/fhir/R4/v2/0136/index.html\">v2 Y/N Indicator</a>#N)</span></p></blockquote></div>"
      },
      "status" : "final",
      "code" : {
        "coding" : [{
          "system" : "http://hl7.org/fhir/us/vr-common-library/CodeSystem/CodeSystem-local-observation-codes-vr",
          "code" : "inputraceandethnicityMother"
        }]
      },
      "subject" : {
        "reference" : "Patient/patient-mother-carmen-teresa-lee",
        "display" : "Patient - Mother (Carmen Teresa Lee)"
      },
      "component" : [{
        "code" : {
          "coding" : [{
            "system" : "http://hl7.org/fhir/us/vr-common-library/CodeSystem/codesystem-vr-component",
            "code" : "White"
          }]
        },
        "valueBoolean" : true
      },
      {
        "code" : {
          "coding" : [{
            "system" : "http://hl7.org/fhir/us/vr-common-library/CodeSystem/codesystem-vr-component",
            "code" : "BlackOrAfricanAmerican"
          }]
        },
        "valueBoolean" : true
      },
      {
        "code" : {
          "coding" : [{
            "system" : "http://hl7.org/fhir/us/vr-common-library/CodeSystem/codesystem-vr-component",
            "code" : "AmericanIndianOrAlaskanNative"
          }]
        },
        "valueBoolean" : true
      },
      {
        "code" : {
          "coding" : [{
            "system" : "http://hl7.org/fhir/us/vr-common-library/CodeSystem/codesystem-vr-component",
            "code" : "AsianIndian"
          }]
        },
        "valueBoolean" : false
      },
      {
        "code" : {
          "coding" : [{
            "system" : "http://hl7.org/fhir/us/vr-common-library/CodeSystem/codesystem-vr-component",
            "code" : "Chinese"
          }]
        },
        "valueBoolean" : false
      },
      {
        "code" : {
          "coding" : [{
            "system" : "http://hl7.org/fhir/us/vr-common-library/CodeSystem/codesystem-vr-component",
            "code" : "Filipino"
          }]
        },
        "valueBoolean" : false
      },
      {
        "code" : {
          "coding" : [{
            "system" : "http://hl7.org/fhir/us/vr-common-library/CodeSystem/codesystem-vr-component",
            "code" : "Japanese"
          }]
        },
        "valueBoolean" : false
      },
      {
        "code" : {
          "coding" : [{
            "system" : "http://hl7.org/fhir/us/vr-common-library/CodeSystem/codesystem-vr-component",
            "code" : "Korean"
          }]
        },
        "valueBoolean" : false
      },
      {
        "code" : {
          "coding" : [{
            "system" : "http://hl7.org/fhir/us/vr-common-library/CodeSystem/codesystem-vr-component",
            "code" : "Vietnamese"
          }]
        },
        "valueBoolean" : false
      },
      {
        "code" : {
          "coding" : [{
            "system" : "http://hl7.org/fhir/us/vr-common-library/CodeSystem/codesystem-vr-component",
            "code" : "OtherAsian"
          }]
        },
        "valueBoolean" : false
      },
      {
        "code" : {
          "coding" : [{
            "system" : "http://hl7.org/fhir/us/vr-common-library/CodeSystem/codesystem-vr-component",
            "code" : "NativeHawaiian"
          }]
        },
        "valueBoolean" : false
      },
      {
        "code" : {
          "coding" : [{
            "system" : "http://hl7.org/fhir/us/vr-common-library/CodeSystem/codesystem-vr-component",
            "code" : "GuamanianOrChamorro"
          }]
        },
        "valueBoolean" : false
      },
      {
        "code" : {
          "coding" : [{
            "system" : "http://hl7.org/fhir/us/vr-common-library/CodeSystem/codesystem-vr-component",
            "code" : "Samoan"
          }]
        },
        "valueBoolean" : false
      },
      {
        "code" : {
          "coding" : [{
            "system" : "http://hl7.org/fhir/us/vr-common-library/CodeSystem/codesystem-vr-component",
            "code" : "OtherPacificIslander"
          }]
        },
        "valueBoolean" : false
      },
      {
        "code" : {
          "coding" : [{
            "system" : "http://hl7.org/fhir/us/vr-common-library/CodeSystem/codesystem-vr-component",
            "code" : "OtherRace"
          }]
        },
        "valueBoolean" : false
      },
      {
        "code" : {
          "coding" : [{
            "system" : "http://hl7.org/fhir/us/vr-common-library/CodeSystem/codesystem-vr-component",
            "code" : "FirstOtherAsianLiteral"
          }]
        },
        "valueString" : "Malaysian"
      },
      {
        "code" : {
          "coding" : [{
            "system" : "http://hl7.org/fhir/us/vr-common-library/CodeSystem/codesystem-vr-component",
            "code" : "FirstAmericanIndianOrAlaskanNativeLiteral"
          }]
        },
        "valueString" : "Arikara"
      },
      {
        "code" : {
          "coding" : [{
            "system" : "http://hl7.org/fhir/us/vr-common-library/CodeSystem/codesystem-vr-component",
            "code" : "HispanicMexican"
          }]
        },
        "valueCodeableConcept" : {
          "coding" : [{
            "system" : "http://terminology.hl7.org/CodeSystem/v2-0136",
            "code" : "Y",
            "display" : "Yes"
          }]
        }
      },
      {
        "code" : {
          "coding" : [{
            "system" : "http://hl7.org/fhir/us/vr-common-library/CodeSystem/codesystem-vr-component",
            "code" : "HispanicCuban"
          }]
        },
        "valueCodeableConcept" : {
          "coding" : [{
            "system" : "http://terminology.hl7.org/CodeSystem/v2-0136",
            "code" : "Y",
            "display" : "Yes"
          }]
        }
      },
      {
        "code" : {
          "coding" : [{
            "system" : "http://hl7.org/fhir/us/vr-common-library/CodeSystem/codesystem-vr-component",
            "code" : "HispanicPuertoRican"
          }]
        },
        "valueCodeableConcept" : {
          "coding" : [{
            "system" : "http://terminology.hl7.org/CodeSystem/v2-0136",
            "code" : "Y",
            "display" : "Yes"
          }]
        }
      },
      {
        "code" : {
          "coding" : [{
            "system" : "http://hl7.org/fhir/us/vr-common-library/CodeSystem/codesystem-vr-component",
            "code" : "HispanicOther"
          }]
        },
        "valueCodeableConcept" : {
          "coding" : [{
            "system" : "http://terminology.hl7.org/CodeSystem/v2-0136",
            "code" : "N",
            "display" : "No"
          }]
        }
      }]
    }
  },
  {
    "fullUrl" : "http://www.example.org/fhir/Practitioner/practitioner-vital-records-janet-seito",
    "resource" : {
      "resourceType" : "Practitioner",
      "id" : "practitioner-vital-records-janet-seito",
      "meta" : {
        "profile" : ["http://hl7.org/fhir/us/vr-common-library/StructureDefinition/Practitioner-vr"]
      },
      "text" : {
        "status" : "generated",
        "div" : "<div xmlns=\"http://www.w3.org/1999/xhtml\"><p><b>Generated Narrative: Practitioner</b><a name=\"practitioner-vital-records-janet-seito\"> </a></p><div style=\"display: inline-block; background-color: #d9e0e7; padding: 6px; margin: 4px; border: 1px solid #8da1b4; border-radius: 5px; line-height: 60%\"><p style=\"margin-bottom: 0px\">Resource Practitioner &quot;practitioner-vital-records-janet-seito&quot; </p><p style=\"margin-bottom: 0px\">Profile: <a href=\"https://build.fhir.org/ig/HL7/vr-common-library//StructureDefinition-Practitioner-vr.html\">Practitioner - Vital Records</a></p></div><p><b>identifier</b>: id:\u00a0<a href=\"http://terminology.hl7.org/5.0.0/NamingSystem-npi.html\">#</a>223347044</p><p><b>name</b>: Seito Janet </p><h3>Qualifications</h3><table class=\"grid\"><tr><td style=\"display: none\">-</td><td><b>Code</b></td></tr><tr><td style=\"display: none\">*</td><td>Osteopath (occupation) <span style=\"background: LightGoldenRodYellow; margin: 4px; border: 1px solid khaki\"> (<a href=\"https://browser.ihtsdotools.org/\">SNOMED CT</a>#76231001)</span></td></tr></table></div>"
      },
      "identifier" : [{
        "system" : "http://hl7.org/fhir/sid/us-npi",
        "value" : "223347044"
      }],
      "name" : [{
        "family" : "Janet",
        "given" : ["Seito"],
        "suffix" : ["D.O."]
      }],
      "qualification" : [{
        "code" : {
          "coding" : [{
            "system" : "http://snomed.info/sct",
            "code" : "76231001",
            "display" : "Osteopath (occupation)"
          }]
        }
      }]
    }
  },
  {
    "fullUrl" : "http://www.example.org/fhir/Location/location-south-hospital",
    "resource" : {
      "resourceType" : "Location",
      "id" : "location-south-hospital",
      "meta" : {
        "profile" : ["http://hl7.org/fhir/us/bfdr/StructureDefinition/Location-bfdr"]
      },
      "text" : {
        "status" : "generated",
        "div" : "<div xmlns=\"http://www.w3.org/1999/xhtml\"><p><b>Generated Narrative: Location</b><a name=\"location-south-hospital\"> </a></p><div style=\"display: inline-block; background-color: #d9e0e7; padding: 6px; margin: 4px; border: 1px solid #8da1b4; border-radius: 5px; line-height: 60%\"><p style=\"margin-bottom: 0px\">Resource Location &quot;location-south-hospital&quot; </p><p style=\"margin-bottom: 0px\">Profile: <a href=\"StructureDefinition-Location-bfdr.html\">Birth and Fetal Death Location</a></p></div><p><b>identifier</b>: id:\u00a0<a href=\"http://terminology.hl7.org/5.0.0/NamingSystem-npi.html\">#</a>116441967701</p><p><b>status</b>: active</p><p><b>name</b>: South Hospital</p><p><b>type</b>: Hospital <span style=\"background: LightGoldenRodYellow; margin: 4px; border: 1px solid khaki\"> (<a href=\"http://terminology.hl7.org/5.0.0/CodeSystem-v3-RoleCode.html\">RoleCode</a>#HOSP)</span>, Birth Location <span style=\"background: LightGoldenRodYellow; margin: 4px; border: 1px solid khaki\"> (<a href=\"CodeSystem-CodeSystem-local-bfdr-codes.html\">Local BFDR Codes</a>#loc_birth)</span></p><p><b>address</b>: 2100 North Ave Salt Lake City UT 84116 US </p><h3>Positions</h3><table class=\"grid\"><tr><td style=\"display: none\">-</td><td><b>Longitude</b></td><td><b>Latitude</b></td></tr><tr><td style=\"display: none\">*</td><td>40.8</td><td>111.9</td></tr></table><p><b>managingOrganization</b>: <a href=\"#Organization_organization-south-hospital\">See above (Organization/organization-south-hospital: Organization - South Hospital)</a></p></div>"
      },
      "identifier" : [{
        "extension" : [{
          "url" : "http://hl7.org/fhir/us/vr-common-library/StructureDefinition/AuxiliaryStateIdentifier1",
          "valueString" : "UT1234567"
        }],
        "system" : "http://hl7.org/fhir/sid/us-npi",
        "value" : "116441967701"
      }],
      "status" : "active",
      "name" : "South Hospital",
      "type" : [{
        "coding" : [{
          "system" : "http://terminology.hl7.org/CodeSystem/v3-RoleCode",
          "code" : "HOSP",
          "display" : "Hospital"
        }]
      },
      {
        "coding" : [{
          "system" : "http://hl7.org/fhir/us/bfdr/CodeSystem/CodeSystem-local-bfdr-codes",
          "code" : "loc_birth",
          "display" : "Birth Location"
        }]
      }],
      "address" : {
        "line" : ["2100 North Ave"],
        "city" : "Salt Lake City",
        "district" : "Made Up",
        "state" : "UT",
        "postalCode" : "84116",
        "country" : "US"
      },
      "position" : {
        "longitude" : 40.8,
        "latitude" : 111.9
      },
      "managingOrganization" : {
        "reference" : "Organization/organization-south-hospital",
        "display" : "Organization - South Hospital"
      }
    }
  },
  {
    "fullUrl" : "http://www.example.org/fhir/Organization/organization-south-hospital",
    "resource" : {
      "resourceType" : "Organization",
      "id" : "organization-south-hospital",
      "text" : {
        "status" : "generated",
        "div" : "<div xmlns=\"http://www.w3.org/1999/xhtml\"><p><b>Generated Narrative: Organization</b><a name=\"organization-south-hospital\"> </a></p><div style=\"display: inline-block; background-color: #d9e0e7; padding: 6px; margin: 4px; border: 1px solid #8da1b4; border-radius: 5px; line-height: 60%\"><p style=\"margin-bottom: 0px\">Resource Organization &quot;organization-south-hospital&quot; </p></div><p><b>identifier</b>: id:\u00a0<a href=\"http://terminology.hl7.org/5.0.0/NamingSystem-npi.html\">#</a>5555512</p><p><b>active</b>: true</p><p><b>type</b>: Hospital <span style=\"background: LightGoldenRodYellow; margin: 4px; border: 1px solid khaki\"> (<a href=\"http://terminology.hl7.org/5.0.0/CodeSystem-v3-RoleCode.html\">RoleCode</a>#HOSP)</span></p><p><b>name</b>: South Hospital</p><p><b>telecom</b>: <a href=\"tel:+1-555-555-1111\">+1-555-555-1111</a>, <a href=\"mailto:mail@southhospital.com\">mail@southhospital.com</a></p><p><b>address</b>: 2100 North Ave Salt Lake City UT 84116 US </p></div>"
      },
      "identifier" : [{
        "system" : "http://hl7.org/fhir/sid/us-npi",
        "value" : "5555512"
      }],
      "active" : true,
      "type" : [{
        "coding" : [{
          "system" : "http://terminology.hl7.org/CodeSystem/v3-RoleCode",
          "code" : "HOSP",
          "display" : "Hospital"
        }]
      }],
      "name" : "South Hospital",
      "telecom" : [{
        "system" : "phone",
        "value" : "+1-555-555-1111"
      },
      {
        "system" : "email",
        "value" : "mail@southhospital.com"
      }],
      "address" : [{
        "line" : ["2100 North Ave"],
        "city" : "Salt Lake City",
        "state" : "UT",
        "postalCode" : "84116",
        "country" : "US"
      }]
    }
  },
  {
    "fullUrl" : "http://www.example.org/fhir/RelatedPerson/relatedperson-mother-carmen-teresa-lee",
    "resource" : {
      "resourceType" : "RelatedPerson",
      "id" : "relatedperson-mother-carmen-teresa-lee",
      "meta" : {
        "profile" : ["http://hl7.org/fhir/us/vr-common-library/StructureDefinition/RelatedPerson-mother-vr"]
      },
      "text" : {
        "status" : "extensions",
        "div" : "<div xmlns=\"http://www.w3.org/1999/xhtml\"><p><b>Generated Narrative: RelatedPerson</b><a name=\"relatedperson-mother-carmen-teresa-lee\"> </a></p><div style=\"display: inline-block; background-color: #d9e0e7; padding: 6px; margin: 4px; border: 1px solid #8da1b4; border-radius: 5px; line-height: 60%\"><p style=\"margin-bottom: 0px\">Resource RelatedPerson &quot;relatedperson-mother-carmen-teresa-lee&quot; </p><p style=\"margin-bottom: 0px\">Profile: <a href=\"https://build.fhir.org/ig/HL7/vr-common-library//StructureDefinition-RelatedPerson-mother-vr.html\">RelatedPerson - Mother Vital Records</a></p></div><blockquote><p><b>US Core Race Extension</b></p><blockquote><p><b>url</b></p><code>ombCategory</code></blockquote><p><b>value</b>: Black or African American (Details: urn:oid:2.16.840.1.113883.6.238 code 2054-5 = 'Black or African American', stated as 'Black or African American')</p><blockquote><p><b>url</b></p><code>text</code></blockquote><p><b>value</b>: Black or African America</p></blockquote><blockquote><p><b>US Core Ethnicity Extension</b></p><blockquote><p><b>url</b></p><code>ombCategory</code></blockquote><p><b>value</b>: Hispanic or Latino (Details: urn:oid:2.16.840.1.113883.6.238 code 2135-2 = 'Hispanic or Latino', stated as 'Hispanic or Latino')</p><blockquote><p><b>url</b></p><code>text</code></blockquote><p><b>value</b>: Hispanic or Latino</p></blockquote><p><b>active</b>: true</p><p><b>patient</b>: <a href=\"#Patient_patient-decedent-fetus-not-named\">See above (Patient/patient-decedent-fetus-not-named: Patient - Decedent Fetus (Fetus Not Named))</a></p><p><b>relationship</b>: Gestational Mother <span style=\"background: LightGoldenRodYellow; margin: 4px; border: 1px solid khaki\"> (<a href=\"http://terminology.hl7.org/5.0.0/CodeSystem-v3-RoleCode.html\">RoleCode</a>#GESTM &quot;gestational mother&quot;)</span></p><p><b>name</b>: Carmen Teresa Lee (OFFICIAL)</p><p><b>gender</b>: female</p><p><b>birthDate</b>: 1986-02-15</p></div>"
      },
      "extension" : [{
        "extension" : [{
          "url" : "ombCategory",
          "valueCoding" : {
            "system" : "urn:oid:2.16.840.1.113883.6.238",
            "code" : "2054-5",
            "display" : "Black or African American"
          }
        },
        {
          "url" : "text",
          "valueString" : "Black or African America"
        }],
        "url" : "http://hl7.org/fhir/us/core/StructureDefinition/us-core-race"
      },
      {
        "extension" : [{
          "url" : "ombCategory",
          "valueCoding" : {
            "system" : "urn:oid:2.16.840.1.113883.6.238",
            "code" : "2135-2",
            "display" : "Hispanic or Latino"
          }
        },
        {
          "url" : "text",
          "valueString" : "Hispanic or Latino"
        }],
        "url" : "http://hl7.org/fhir/us/core/StructureDefinition/us-core-ethnicity"
      }],
      "active" : true,
      "patient" : {
        "reference" : "Patient/patient-decedent-fetus-not-named",
        "display" : "Patient - Decedent Fetus (Fetus Not Named)"
      },
      "relationship" : [{
        "coding" : [{
          "system" : "http://terminology.hl7.org/CodeSystem/v3-RoleCode",
          "code" : "GESTM",
          "display" : "gestational mother"
        }],
        "text" : "Gestational Mother"
      }],
      "name" : [{
        "use" : "official",
        "family" : "Lee",
        "given" : ["Carmen",
        "Teresa"]
      }],
      "gender" : "female",
      "birthDate" : "1986-02-15"
    }
  },
  {
    "fullUrl" : "http://www.example.org/fhir/RelatedPerson/relatedperson-father-natural-tom-yan-lee",
    "resource" : {
      "resourceType" : "RelatedPerson",
      "id" : "relatedperson-father-natural-tom-yan-lee",
      "meta" : {
        "profile" : ["http://hl7.org/fhir/us/vr-common-library/StructureDefinition/RelatedPerson-father-natural-vr"]
      },
      "text" : {
        "status" : "extensions",
        "div" : "<div xmlns=\"http://www.w3.org/1999/xhtml\"><p><b>Generated Narrative: RelatedPerson</b><a name=\"relatedperson-father-natural-tom-yan-lee\"> </a></p><div style=\"display: inline-block; background-color: #d9e0e7; padding: 6px; margin: 4px; border: 1px solid #8da1b4; border-radius: 5px; line-height: 60%\"><p style=\"margin-bottom: 0px\">Resource RelatedPerson &quot;relatedperson-father-natural-tom-yan-lee&quot; </p><p style=\"margin-bottom: 0px\">Profile: <a href=\"https://build.fhir.org/ig/HL7/vr-common-library//StructureDefinition-RelatedPerson-father-natural-vr.html\">RelatedPerson - Father Natural Vital Records</a></p></div><blockquote><p><b>US Core Race Extension</b></p><blockquote><p><b>url</b></p><code>ombCategory</code></blockquote><p><b>value</b>: White (Details: urn:oid:2.16.840.1.113883.6.238 code 2106-3 = 'White', stated as 'White')</p><blockquote><p><b>url</b></p><code>text</code></blockquote><p><b>value</b>: White</p></blockquote><blockquote><p><b>US Core Ethnicity Extension</b></p><blockquote><p><b>url</b></p><code>ombCategory</code></blockquote><p><b>value</b>: Not Hispanic or Latino (Details: urn:oid:2.16.840.1.113883.6.238 code 2186-5 = 'Not Hispanic or Latino', stated as 'Not Hispanic or Latino')</p><blockquote><p><b>url</b></p><code>text</code></blockquote><p><b>value</b>: Not Hispanic or Latino</p></blockquote><p><b>RelatedPerson Birth Place Vital Records</b>: NY </p><p><b>active</b>: true</p><p><b>patient</b>: <a href=\"#Patient_patient-decedent-fetus-not-named\">See above (Patient/patient-decedent-fetus-not-named: Patient - Decedent Fetus (Fetus Not Named))</a></p><p><b>relationship</b>: Natural Father <span style=\"background: LightGoldenRodYellow; margin: 4px; border: 1px solid khaki\"> (<a href=\"http://terminology.hl7.org/5.0.0/CodeSystem-v3-RoleCode.html\">RoleCode</a>#NFTH &quot;natural father&quot;)</span></p><p><b>name</b>: Tom Yan Lee (OFFICIAL)</p><p><b>gender</b>: male</p><p><b>birthDate</b>: 1984-02-27</p></div>"
      },
      "extension" : [{
        "extension" : [{
          "url" : "ombCategory",
          "valueCoding" : {
            "system" : "urn:oid:2.16.840.1.113883.6.238",
            "code" : "2106-3",
            "display" : "White"
          }
        },
        {
          "url" : "text",
          "valueString" : "White"
        }],
        "url" : "http://hl7.org/fhir/us/core/StructureDefinition/us-core-race"
      },
      {
        "extension" : [{
          "url" : "ombCategory",
          "valueCoding" : {
            "system" : "urn:oid:2.16.840.1.113883.6.238",
            "code" : "2186-5",
            "display" : "Not Hispanic or Latino"
          }
        },
        {
          "url" : "text",
          "valueString" : "Not Hispanic or Latino"
        }],
        "url" : "http://hl7.org/fhir/us/core/StructureDefinition/us-core-ethnicity"
      },
      {
        "url" : "http://hl7.org/fhir/us/vr-common-library/StructureDefinition/Extension-relatedperson-birthplace-vr",
        "valueAddress" : {
          "state" : "NY"
        }
      }],
      "active" : true,
      "patient" : {
        "reference" : "Patient/patient-decedent-fetus-not-named",
        "display" : "Patient - Decedent Fetus (Fetus Not Named)"
      },
      "relationship" : [{
        "coding" : [{
          "system" : "http://terminology.hl7.org/CodeSystem/v3-RoleCode",
          "code" : "NFTH",
          "display" : "natural father"
        }],
        "text" : "Natural Father"
      }],
      "name" : [{
        "use" : "official",
        "family" : "Lee",
        "given" : ["Tom",
        "Yan"]
      }],
      "gender" : "male",
      "birthDate" : "1984-02-27"
    }
  }]
}