<?xml version="1.0" encoding="UTF-8"?>
<Bundle xmlns="http://hl7.org/fhir">
    <id value="bundle-jurisdiction-live-birth-babyg-quinn" />
    <meta>
        <versionId value="8" />
        <lastUpdated value="2023-08-29T06:21:30.334Z" />
        <profile value="http://hl7.org/fhir/us/bfdr/StructureDefinition/Bundle-document-bfdr" />
    </meta>
    <identifier>
        <system value="urn:ietf:rfc:3986" />
        <value value="urn:uuid:101bec42-b799-4f3d-9188-b9cb376cc094" />
    </identifier>
    <type value="document" />
    <timestamp value="2019-02-13T02:06:15.234Z" />
    <entry>
        <fullUrl value="http://example.org/fhir/Composition/composition-jurisdiction-live-birth-babyg-quinn" />
        <resource>
            <Composition>
                <id value="composition-jurisdiction-live-birth-babyg-quinn" />
                <meta>
                    <profile value="http://hl7.org/fhir/us/bfdr/StructureDefinition/Composition-jurisdiction-live-birth-report" />
                </meta>
                <extension url="http://hl7.org/fhir/us/bfdr/StructureDefinition/Extension-live-birth-certificate-number">
                    <valueIdentifier>
                        <type>
                            <coding>
                                <system value="http://terminology.hl7.org/CodeSystem/v2-0203" />
                                <code value="BCT" />
                            </coding>
                        </type>
                        <value value="15075" />
                    </valueIdentifier>
                </extension>
                <extension url="http://hl7.org/fhir/us/bfdr/StructureDefinition/Extension-live-birth-local-file-number">
                    <valueIdentifier>
                        <type>
                            <coding>
                                <system value="http://terminology.hl7.org/CodeSystem/v2-0203" />
                                <code value="BCFN" />
                            </coding>
                        </type>
                        <value value="4444-55555" />
                    </valueIdentifier>
                </extension>
                <extension url="http://hl7.org/fhir/us/bfdr/StructureDefinition/Extension-date-filed-by-registrar">
                    <valueDateTime value="2019-02-12" />
                </extension>
                <identifier>
                    <value value="c03eab8c-11e8-4d0c-ad2a-b385395e27df" />
                </identifier>
                <status value="final" />
                <type>
                    <coding>
                        <system value="http://loinc.org" />
                        <code value="92011-6" />
                        <display value="Jurisdiction live birth report Document" />
                    </coding>
                </type>
                <subject>
                    <reference value="Patient/patient-child-babyg-quinn" />
                    <display value="Patient - Child (Baby G Quinn)" />
                </subject>
                <encounter>
                    <extension url="http://hl7.org/fhir/us/bfdr/StructureDefinition/Extension-encounter-maternity-reference">
                        <valueReference>
                            <reference value="Encounter/encounter-maternity-jada-ann-quinn" />
                        </valueReference>
                    </extension>
                    <reference value="Encounter/encounter-birth-babyg-quinn" />
                    <display value="Encounter - Birth (Baby G Quinn)" />
                </encounter>
                <date value="2019-02-12" />
                <author>
                    <reference value="Organization/organization-jurisdictional-vital-records-office" />
                    <display value="Jurisdictional Vital Records Office" />
                </author>
                <title value="Jurisdiction live birth report Document" />
                <section>
                    <title value="Mother (prenatal) Section on the Live Birth Certificate" />
                    <code>
                        <coding>
                            <system value="http://loinc.org" />
                            <code value="57073-9" />
                            <display value="Prenatal records" />
                        </coding>
                    </code>
                    <focus>
                        <reference value="Patient/patient-mother-jada-ann-quinn" />
                        <display value="Patient - Mother (Jada Ann Quinn)" />
                    </focus>
                    <entry>
                        <reference value="Observation/observation-planned-to-deliver-at-home-babyg-quinn" />
                        <display value="Observation - Planned to Deliver at Home (Jada Ann Quinn)" />
                    </entry>
                    <entry>
                        <reference value="Observation/observation-date-of-first-prenatal-care-visit-jada-ann-quinn" />
                        <display value="Observation - Date of First Prenantal Care Visit (Jada Ann Quinn)" />
                    </entry>
                    <entry>
                        <reference value="Observation/observation-number-prenatal-visits-jada-ann-quinn" />
                        <display value="Observation - Number Prenatal Visits (Jada Ann Quinn)" />
                    </entry>
                    <entry>
                        <reference value="Observation/observation-last-menstrual-period-jada-ann-quinn" />
                        <display value="Observation - Last Menstrual Period (Jada Ann Quinn)" />
                    </entry>
                    <entry>
                        <reference value="Observation/observation-number-births-now-living-jada-ann-quinn" />
                        <display value="Observation - Number Births Now Living (Jada Ann Quinn)" />
                    </entry>
                    <entry>
                        <reference value="Observation/observation-number-births-now-dead-jada-ann-quinn" />
                        <display value="Observation - Number Births Now Dead (Jada Ann Quinn)" />
                    </entry>
                    <entry>
                        <reference value="Observation/observation-date-of-last-live-birth-jada-ann-quinn" />
                        <display value="Observation - Date of Last Live Birth (Jada Ann Quinn)" />
                    </entry>
                    <entry>
                        <reference value="Observation/observation-number-other-pregnancy-outcomes-jada-ann-quinn" />
                        <display value="Observation - Number Other Pregnancy Outcomes (Jada Ann Quinn)" />
                    </entry>
                    <entry>
                        <reference value="Observation/observation-date-of-last-other-pregnancy-outcome-jada-ann-quinn" />
                        <display value="Observation - Date of Last Other Pregnancy Outcome (Jada Ann Quinn)" />
                    </entry>
                    <entry>
                        <reference value="Coverage/coverage-principal-payer-for-delivery-jada-ann-quinn" />
                        <display value="Coverage - Principal Payer for Delivery (Jada Ann Quinn)" />
                    </entry>
                    <entry>
                        <reference value="Observation/observation-mother-delivery-weight-jada-ann-quinn" />
                        <display value="Observation - Mother Delivery Weight (Jada Ann Quinn)" />
                    </entry>
                    <entry>
                        <reference value="Observation/observation-mother-height-jada-ann-quinn" />
                        <display value="Observation - Observation - Mother Height (Jada Ann Quinn)" />
                    </entry>
                    <entry>
                        <reference value="Observation/observation-mother-prepregnancy-weight-jada-ann-quinn" />
                        <display value="Observation - Mother Prepregnancy Weight (Jada Ann Quinn)" />
                    </entry>
                    <entry>
                        <reference value="Observation/observation-mother-received-wic-food-jada-ann-quinn" />
                        <display value="Observation - Mother Received WIC Food (Jada Ann Quinn)" />
                    </entry>
                    <entry>
                        <reference value="Observation/observation-cig-smoking-pregnancy-1-jada-ann-quinn" />
                        <display value="Observation - Cigarette Smoking Before/During Pregnancy (3 months prior: Jada Ann Quinn)" />
                    </entry>
                    <entry>
                        <reference value="Observation/observation-cig-smoking-pregnancy-2-jada-ann-quinn" />
                        <display value="Observation - Cigarette Smoking Before/During Pregnancy (first 3 months: Jada Ann Quinn)" />
                    </entry>
                    <entry>
                        <reference value="Observation/observation-cig-smoking-pregnancy-3-jada-ann-quinn" />
                        <display value="Observation - Cigarette Smoking Before/During Pregnancy (second 3 months: Jada Ann Quinn)" />
                    </entry>
                    <entry>
                        <reference value="Observation/observation-cig-smoking-pregnancy-4-jada-ann-quinn" />
                        <display value="Observation - Cigarette Smoking Before/During Pregnancy (last 3 months: Jada Ann Quinn)" />
                    </entry>
                </section>
                <section>
                    <title value="Medical Health Information Section" />
                    <code>
                        <coding>
                            <system value="http://loinc.org" />
                            <code value="55752-0" />
                            <display value="Clinical information" />
                        </coding>
                    </code>
                    <focus>
                        <reference value="Patient/patient-mother-jada-ann-quinn" />
                        <display value="Patient - Mother (Jada Ann Quinn)" />
                    </focus>
                    <entry>
                        <reference value="Condition/condition-gestational-hypertension-jada-ann-quinn" />
                        <display value="Condition - Gestational Hypertension (Jada Ann Quinn)" />
                    </entry>
                    <entry>
                        <reference value="Observation/observation-number-previous-cesareans-jada-ann-quinn" />
                        <display value="Observation - Number Previous Cesareans (Jada Ann Quinn)" />
                    </entry>
                    <entry>
                        <reference value="Condition/condition-infection-present-during-pregnancy-jada-ann-quinn" />
                        <display value="Condition - Infection Present During Pregnancy (Jada Ann Quinn)" />
                    </entry>
                    <entry>
                        <reference value="Procedure/procedure-obstetric-procedure-jada-ann-quinn" />
                        <display value="Procedure - Obstetric Procedure (Jada Ann Quinn)" />
                    </entry>
                    <entry>
                        <reference value="Condition/condition-chorioamnionitis-jada-ann-quinn" />
                        <display value="Condition - Characteristic of Labor and Delivery (Jada Ann Quinn: Chorioamnionitis)" />
                    </entry>
                    <entry>
                        <reference value="Procedure/procedure-induction-of-labor-jada-ann-quinn" />
                        <display value="Procedure - Characteristic of Labor and Delivery (Jada Ann Quinn: Induction of Labor)" />
                    </entry>
                    <entry>
                        <reference value="Observation/observation-fetal-presentation-babyg-quinn" />
                        <display value="Observation - Fetal Presentation (Baby G Quinn)" />
                    </entry>
                    <entry>
                        <reference value="Procedure/procedure-final-route-method-delivery-babyg-quinn" />
                        <display value="Procedure - Final Route and Method of Delivery (Baby G Quinn)" />
                    </entry>
                    <entry>
                        <reference value="Condition/condition-ruptured-uterus-jada-ann-quinn" />
                        <display value="Condition - Maternal Morbidity - Ruptured Uterus (Jada Ann Quinn)" />
                    </entry>
                </section>
                <section>
                    <title value="Newborn section on the Live Birth Certificate" />
                    <code>
                        <coding>
                            <system value="http://loinc.org" />
                            <code value="57075-4" />
                            <display value="Newborn delivery information" />
                        </coding>
                    </code>
                    <entry>
                        <reference value="Observation/observation-birth-weight-babyg-quinn" />
                        <display value="Observation - Birth Weight (Baby G Quinn)" />
                    </entry>
                    <entry>
                        <reference value="Observation/observation-gestational-age-at-delivery-babyg-quinn" />
                        <display value="Observation - Gestational Age at Delivery (Baby G Quinn)" />
                    </entry>
                    <entry>
                        <reference value="Observation/observation-apgar-score-babyg-quinn-1-min" />
                        <display value="Observation - Apgar Score (BabyG Quinn: 1 min)" />
                    </entry>
                    <entry>
                        <reference value="Observation/observation-apgar-score-babyg-quinn-5-min" />
                        <display value="Observation - Apgar Score (BabyG Quinn: 5 min)" />
                    </entry>
                    <entry>
                        <reference value="Condition/condition-congenital-anomaly-of-newborn-babyg-quinn" />
                        <display value="Condition - Congenital Anomaly of Newborn (BabyG Quinn) 1" />
                    </entry>
                    <entry>
                        <reference value="Condition/condition-congenital-anomaly-of-newborn-babyg-quinn-2" />
                        <display value="Condition - Congenital Anomaly of Newborn (Baby G Quinn) 2" />
                    </entry>
                    <entry>
                        <reference value="Observation/observation-infant-living-babyg-quinn" />
                        <display value="Observation - Infant Living (Baby G Quinn)" />
                    </entry>
                    <entry>
                        <reference value="Observation/observation-infant-breastfed-at-discharge-babyg-quinn" />
                        <display value="Observation - Infant Breastfed at Discharge (Baby G Quinn)" />
                    </entry>
                </section>
                <section>
                    <title value="Mother's Information Section" />
                    <code>
                        <coding>
                            <system value="http://loinc.org" />
                            <code value="92014-0" />
                            <display value="Mother's administrative information" />
                        </coding>
                    </code>
                    <focus>
                        <reference value="Patient/patient-mother-jada-ann-quinn" />
                        <display value="Patient - Mother (Jada Ann Quinn)" />
                    </focus>
                    <entry>
                        <reference value="Observation/observation-mother-married-during-pregnancy-jada-ann-quinn" />
                        <display value="Observation - Mother Married During Pregnancy (Jada Ann Quinn)" />
                    </entry>
                    <entry>
                        <reference value="Observation/observation-parent-education-level-jada-ann-quinn" />
                        <display value="Observation - Parent Education Level (Jada Ann Quinn)" />
                    </entry>
                    <entry>
                        <reference value="Observation/observation-ssn-requested-for-child-babyg-quinn" />
                        <display value="Observation - SSN Requested for Child (Jada Ann Quinn)" />
                    </entry>
                </section>
                <section>
                    <title value="Father's Information Section" />
                    <code>
                        <coding>
                            <system value="http://loinc.org" />
                            <code value="92013-2" />
                            <display value="Father's Administrative Information" />
                        </coding>
                    </code>
                    <focus>
                        <reference value="RelatedPerson/relatedperson-father-natural-james-brandon-quinn" />
                        <display value="RelatedPerson - Father (James Brandon Quinn)" />
                    </focus>
                    <entry>
                        <reference value="Observation/observation-paternity-acknowledgement-signed-james-quinn" />
                        <display value="Observation - Paternity Acknowledgement Signed (James Brandon Quinn)" />
                    </entry>
                    <entry>
                        <reference value="Observation/observation-parent-education-level-james-quinn" />
                        <display value="Observation - Parent Education Level (James Brandon Quinn)" />
                    </entry>
                </section>
                <section>
                    <title value="Edit Flags Section" />
                    <code>
                        <coding>
                            <system value="http://loinc.org" />
                            <code value="92012-4" />
                            <display value="Edit flags section" />
                        </coding>
                    </code>
                    <entry>
                        <reference value="Observation/observation-edit-birth-weight-babyg-quinn" />
                        <display value="Observation - Edit flag birthweight" />
                    </entry>
                    <entry>
                        <reference value="Observation/observation-edit-flag-estimate-of-gestation-example" />
                        <display value="Observation - Edit flag estimate of gestation" />
                    </entry>
                    <entry>
                        <reference value="Observation/observation-edit-flag-fathers-date-of-birth-example" />
                        <display value="Observation - Edit flag father's date of birth" />
                    </entry>
                    <entry>
                        <reference value="Observation/observation-edit-flag-fathers-education-example" />
                        <display value="Observation - Edit flag father's education" />
                    </entry>
                    <entry>
                        <reference value="Observation/observation-edit-flag-mothers-date-of-birth-example" />
                        <display value="Observation - Edit flag mother's date of birth" />
                    </entry>
                    <entry>
                        <reference value="Observation/observation-edit-flag-mothers-delivery-weight-example" />
                        <display value="Observation - Edit flag mother's delivery weight" />
                    </entry>
                    <entry>
                        <reference value="Observation/observation-edit-flag-mothers-education-example" />
                        <display value="Observation - Edit flag mother's education" />
                    </entry>
                    <entry>
                        <reference value="Observation/observation-edit-flag-mothers-height-example" />
                        <display value="Observation - Edit flag mother's height" />
                    </entry>
                    <entry>
                        <reference value="Observation/observation-edit-flag-mothers-prepregnancy-weight-example" />
                        <display value="Observation - Edit flag mother's prepregnancy weight" />
                    </entry>
                    <entry>
                        <reference value="Observation/observation-edit-flag-number-prenatal-care-visits-example" />
                        <display value="Observation - Edit flag number prenatal care visits" />
                    </entry>
                    <entry>
                        <reference value="Observation/observation-edit-flag-number-previous-cesareans-example" />
                        <display value="Observation - Edit flag number previous cesareans" />
                    </entry>
                    <entry>
                        <reference value="Observation/observation-edit-flag-plurality-example" />
                        <display value="Observation - Edit flag plurality" />
                    </entry>
                </section>
            </Composition>
        </resource>
    </entry>
    <entry>
        <fullUrl value="http://example.org/fhir/Patient/patient-child-babyg-quinn" />
        <resource>
            <Patient>
                <id value="patient-child-babyg-quinn" />
                <meta>
                    <profile value="http://hl7.org/fhir/us/vr-common-library/StructureDefinition/Patient-child-vr" />
                </meta>
                <extension url="http://hl7.org/fhir/us/core/StructureDefinition/us-core-race">
                    <extension url="ombCategory">
                        <valueCoding>
                            <system value="urn:oid:2.16.840.1.113883.6.238" />
                            <code value="2106-3" />
                            <display value="White" />
                        </valueCoding>
                    </extension>
                    <extension url="text">
                        <valueString value="White" />
                    </extension>
                </extension>
                <extension url="http://hl7.org/fhir/us/core/StructureDefinition/us-core-ethnicity">
                    <extension url="ombCategory">
                        <valueCoding>
                            <system value="urn:oid:2.16.840.1.113883.6.238" />
                            <code value="2186-5" />
                            <display value="Not Hispanic or Latino" />
                        </valueCoding>
                    </extension>
                    <extension url="text">
                        <valueString value="Not Hispanic or Latino" />
                    </extension>
                </extension>
                <extension url="http://hl7.org/fhir/us/core/StructureDefinition/us-core-birthsex">
                    <valueCode value="F" />
                </extension>
                <extension url="http://hl7.org/fhir/StructureDefinition/patient-birthPlace">
                    <valueAddress>
                        <city value="Salt Lake City" />
                        <district value="Salt Lake" />
                        <state value="UT" />
                    </valueAddress>
                </extension>
                <identifier>
                    <use value="usual" />
                    <type>
                        <coding>
                            <system value="http://terminology.hl7.org/CodeSystem/v2-0203" />
                            <code value="MR" />
                            <display value="Medical Record Number" />
                        </coding>
                    </type>
                    <system value="http://hospital.smarthealthit.org" />
                    <value value="9932702" />
                </identifier>
                <name>
                    <family value="Quinn" />
                    <given value="Baby" />
                    <given value="G" />
                </name>
                <gender value="female" />
                <birthDate value="2019-02-12">
                    <extension url="http://hl7.org/fhir/StructureDefinition/patient-birthTime">
                        <valueDateTime value="2019-02-12T13:00:00-07:00" />
                    </extension>
                </birthDate>
            </Patient>
        </resource>
    </entry>
    <entry>
        <fullUrl value="http://example.org/fhir/Encounter/encounter-birth-babyg-quinn" />
        <resource>
            <Encounter>
                <id value="encounter-birth-babyg-quinn" />
                <meta>
                    <profile value="http://hl7.org/fhir/us/bfdr/StructureDefinition/Encounter-birth" />
                </meta>
                <identifier>
                    <system value="http://hospital.smarthealthit.org" />
                    <value value="9937012" />
                </identifier>
                <status value="finished" />
                <class>
                    <system value="http://terminology.hl7.org/CodeSystem/v3-ActCode" />
                    <code value="IMP" />
                    <display value="inpatient encounter" />
                </class>
                <type>
                    <coding>
                        <system value="http://www.ama-assn.org/go/cpt" />
                        <code value="99234" />
                    </coding>
                    <text value="Under Observation or Inpatient Care Services (Including Admission and Discharge Services)" />
                </type>
                <subject>
                    <reference value="Patient/patient-child-babyg-quinn" />
                    <display value="BabyG Quinn" />
                </subject>
                <participant>
                    <type>
                        <coding>
                            <system value="http://loinc.org" />
                            <code value="87287-9" />
                            <display value="Birth certifier [Extended Identifier]" />
                        </coding>
                    </type>
                    <period>
                        <start value="2019-02-12T13:30:00-07:00" />
                    </period>
                    <individual>
                        <reference value="Practitioner/practitioner-vital-records-avery-jones" />
                        <display value="Practitioner - Vital Records (Avery Jones, MD)" />
                    </individual>
                </participant>
                <participant>
                    <type>
                        <coding>
                            <system value="http://loinc.org" />
                            <code value="87286-1" />
                            <display value="Birth attendant [Extended Identifier]" />
                        </coding>
                    </type>
                    <individual>
                        <reference value="Practitioner/practitioner-vital-records-avery-jones" />
                        <display value="Practitioner - Vital Records (Avery Jones, MD)" />
                    </individual>
                </participant>
                <period>
                    <start value="2019-02-12T13:00:00-07:00" />
                    <end value="2019-02-15T10:00:00-07:00" />
                </period>
                <hospitalization>
                    <destination>
                        <reference value="Location/location-east-hospital" />
                        <display value="East Hospital Location" />
                    </destination>
                    <dischargeDisposition>
                        <coding>
                            <system value="http://terminology.hl7.org/CodeSystem/discharge-disposition" />
                            <code value="other-hcf" />
                            <display value="Other healthcare facility" />
                        </coding>
                        <text value="The patient was transferred to another healthcare facility." />
                    </dischargeDisposition>
                </hospitalization>
                <location>
                    <location>
                        <reference value="Location/location-south-hospital" />
                        <display value="Location - US Core Location (South Hospital)" />
                    </location>
                    <physicalType>
                        <coding>
                            <system value="http://snomed.info/sct" />
                            <code value="22232009" />
                            <display value="Hospital" />
                        </coding>
                    </physicalType>
                </location>
                <partOf>
                    <reference value="Encounter/encounter-maternity-jada-ann-quinn" />
                    <display value="Maternity Encounter - Jada Ann Quinn" />
                </partOf>
            </Encounter>
        </resource>
    </entry>
    <entry>
        <fullUrl value="http://example.org/fhir/Encounter/encounter-maternity-jada-ann-quinn" />
        <resource>
            <Encounter>
                <id value="encounter-maternity-jada-ann-quinn" />
                <meta>
                    <profile value="http://hl7.org/fhir/us/bfdr/StructureDefinition/Encounter-maternity" />
                </meta>
                <identifier>
                    <system value="http://hospital.smarthealthit.org" />
                    <value value="9937012" />
                </identifier>
                <status value="finished" />
                <class>
                    <system value="http://terminology.hl7.org/CodeSystem/v3-ActCode" />
                    <code value="IMP" />
                    <display value="inpatient encounter" />
                </class>
                <type>
                    <coding>
                        <system value="http://www.ama-assn.org/go/cpt" />
                        <code value="99234" />
                    </coding>
                    <text value="Under Observation or Inpatient Care Services (Including Admission and Discharge Services)" />
                </type>
                <subject>
                    <reference value="Patient/patient-mother-jada-ann-quinn" />
                    <display value="Patient - Mother (Jada Ann Quinn)" />
                </subject>
                <participant>
                    <type>
                        <coding>
                            <system value="http://loinc.org" />
                            <code value="87286-1" />
                            <display value="Birth attendant [Extended Identifier]" />
                        </coding>
                    </type>
                    <individual>
                        <reference value="Practitioner/practitioner-vital-records-avery-jones" />
                        <display value="Practitioner - Vital Records (Avery Jones, MD)" />
                    </individual>
                </participant>
                <period>
                    <start value="2019-02-11T10:00:00-07:00" />
                    <end value="2019-02-15T10:00:00-07:00" />
                </period>
                <hospitalization>
                    <origin>
                        <reference value="Location/location-north-hospital" />
                        <display value="Location - US Core Location (North Hospital)" />
                    </origin>
                    <admitSource>
                        <coding>
                            <system value="http://terminology.hl7.org/CodeSystem/admit-source" />
                            <code value="hosp-trans" />
                            <display value="Transferred from other hospital" />
                        </coding>
                        <text value="The Patient has been transferred from another hospital for this encounter." />
                    </admitSource>
                </hospitalization>
                <location>
                    <location>
                        <reference value="Location/location-south-hospital" />
                        <display value="Location - US Core Location (South Hospital)" />
                    </location>
                    <physicalType>
                        <coding>
                            <system value="http://snomed.info/sct" />
                            <code value="22232009" />
                            <display value="Hospital" />
                        </coding>
                    </physicalType>
                </location>
                <serviceProvider>
                    <reference value="Organization/organization-south-hospital" />
                    <display value="Organization - US Core Organization (South Hospital Organization)" />
                </serviceProvider>
            </Encounter>
        </resource>
    </entry>
    <entry>
        <fullUrl value="http://example.org/fhir/Organization/organization-jurisdictional-vital-records-office" />
        <resource>
            <Organization>
                <id value="organization-jurisdictional-vital-records-office" />
                <active value="true" />
                <name value="Jurisdictional Vital Records Office" />
            </Organization>
        </resource>
    </entry>
    <entry>
        <fullUrl value="http://example.org/fhir/Patient/patient-mother-jada-ann-quinn" />
        <resource>
            <Patient>
                <id value="patient-mother-jada-ann-quinn" />
                <meta>
                    <profile value="http://hl7.org/fhir/us/vr-common-library/StructureDefinition/Patient-mother-vr" />
                </meta>
                <extension url="http://hl7.org/fhir/us/core/StructureDefinition/us-core-race">
                    <extension url="ombCategory">
                        <valueCoding>
                            <system value="urn:oid:2.16.840.1.113883.6.238" />
                            <code value="2106-3" />
                            <display value="White" />
                        </valueCoding>
                    </extension>
                    <extension url="ombCategory">
                        <valueCoding>
                            <system value="urn:oid:2.16.840.1.113883.6.238" />
                            <code value="1002-5" />
                            <display value="American Indian or Alaska Native" />
                        </valueCoding>
                    </extension>
                    <extension url="text">
                        <valueString value="White, American Indian or Alaska Native" />
                    </extension>
                </extension>
                <extension url="http://hl7.org/fhir/us/core/StructureDefinition/us-core-ethnicity">
                    <extension url="ombCategory">
                        <valueCoding>
                            <system value="urn:oid:2.16.840.1.113883.6.238" />
                            <code value="2186-5" />
                            <display value="Not Hispanic or Latino" />
                        </valueCoding>
                    </extension>
                    <extension url="text">
                        <valueString value="Not Hispanic or Latino" />
                    </extension>
                </extension>
                <extension url="http://hl7.org/fhir/us/core/StructureDefinition/us-core-birthsex">
                    <valueCode value="F" />
                </extension>
                <extension url="http://hl7.org/fhir/StructureDefinition/patient-birthPlace">
                    <valueAddress>
                        <state value="UT" />
                    </valueAddress>
                </extension>
                <identifier>
                    <use value="usual" />
                    <type>
                        <coding>
                            <system value="http://terminology.hl7.org/CodeSystem/v2-0203" />
                            <code value="SS" />
                            <display value="Social Security number" />
                        </coding>
                    </type>
                    <system value="http://hl7.org/fhir/sid/us-ssn" />
                    <value value="132225986" />
                </identifier>
                <identifier>
                    <use value="usual" />
                    <type>
                        <coding>
                            <system value="http://terminology.hl7.org/CodeSystem/v2-0203" />
                            <code value="MR" />
                            <display value="Medical Record Number" />
                        </coding>
                    </type>
                    <system value="http://hospital.smarthealthit.org" />
                    <value value="1032702" />
                </identifier>
                <name>
                    <use value="official" />
                    <family value="Quinn" />
                    <given value="Jada" />
                    <given value="Ann" />
                </name>
                <name>
                    <use value="maiden" />
                    <family value="King" />
                    <given value="Jada" />
                    <given value="Ann" />
                </name>
                <telecom>
                    <system value="phone" />
                    <value value="1-(404)555-1212" />
                    <use value="home" />
                </telecom>
                <telecom>
                    <system value="email" />
                    <value value="jadaann.quinn@example.com" />
                </telecom>
                <gender value="female" />
                <birthDate value="1985-01-15" />
                <address>
                    <extension url="http://hl7.org/fhir/us/vr-common-library/StructureDefinition/Extension-within-city-limits-indicator-vr">
                        <valueCoding>
                            <system value="http://terminology.hl7.org/CodeSystem/v2-0532" />
                            <code value="Y" />
                            <display value="Yes" />
                        </valueCoding>
                    </extension>
                    <use value="home" />
                    <line value="1875 West Morton Avenue" />
                    <city value="Salt Lake City" />
                    <district value="Salt Lake" />
                    <state value="UT" />
                    <postalCode value="84116" />
                    <country value="US" />
                </address>
                <address>
                    <use value="billing" />
                    <line value="1848 South 1300 East" />
                    <city value="Salt Lake City" />
                    <state value="UT" />
                    <postalCode value="84401" />
                    <country value="US" />
                </address>
                <link>
                    <other>
                        <reference value="RelatedPerson/relatedperson-mother-jada-ann-quinn" />
                    </other>
                    <type value="seealso" />
                </link>
            </Patient>
        </resource>
    </entry>
    <entry>
        <fullUrl value="http://example.org/fhir/Observation/observation-planned-to-deliver-at-home-babyg-quinn" />
        <resource>
            <Observation>
                <id value="observation-planned-to-deliver-at-home-babyg-quinn" />
                <meta>
                    <profile value="http://hl7.org/fhir/us/bfdr/StructureDefinition/Observation-planned-to-deliver-at-home" />
                </meta>
                <status value="final" />
                <code>
                    <coding>
                        <system value="http://loinc.org" />
                        <code value="73765-0" />
                        <display value="Mother Planned to deliver at home [US Standard Certificate of Live Birth]" />
                    </coding>
                    <text value="Planned to deliver at home?" />
                </code>
                <subject>
                    <reference value="Patient/patient-child-babyg-quinn" />
                    <display value="BabyG Quinn" />
                </subject>
                <focus>
                    <reference value="Patient/patient-mother-jada-ann-quinn" />
                    <display value="Patient - Mother (Jada Ann Quinn)" />
                </focus>
                <issued value="2019-02-11T20:02:00-07:00" />
                <valueBoolean value="true" />
            </Observation>
        </resource>
    </entry>
    <entry>
        <fullUrl value="http://example.org/fhir/Observation/observation-date-of-first-prenatal-care-visit-jada-ann-quinn" />
        <resource>
            <Observation>
                <id value="observation-date-of-first-prenatal-care-visit-jada-ann-quinn" />
                <meta>
                    <profile value="http://hl7.org/fhir/us/bfdr/StructureDefinition/Observation-date-of-first-prenatal-care-visit" />
                </meta>
                <status value="final" />
                <code>
                    <coding>
                        <system value="http://loinc.org" />
                        <code value="69044-6" />
                        <display value="Date first prenatal visit" />
                    </coding>
                    <text value="Date of first prenatal care visit" />
                </code>
                <subject>
                    <reference value="Patient/patient-child-babyg-quinn" />
                    <display value="BabyG Quinn" />
                </subject>
                <focus>
                    <reference value="Patient/patient-mother-jada-ann-quinn" />
                    <display value="Patient - Mother (Jada Ann Quinn)" />
                </focus>
                <effectiveDateTime value="2019-12-02" />
                <performer>
                    <reference value="Practitioner/practitioner-vital-records-janet-seito" />
                </performer>
                <valueDateTime value="2018-07-20" />
            </Observation>
        </resource>
    </entry>
    <entry>
        <fullUrl value="http://example.org/fhir/Observation/observation-number-prenatal-visits-jada-ann-quinn" />
        <resource>
            <Observation>
                <id value="observation-number-prenatal-visits-jada-ann-quinn" />
                <meta>
                    <profile value="http://hl7.org/fhir/us/vr-common-library/StructureDefinition/Observation-number-prenatal-visits-vr" />
                </meta>
                <status value="final" />
                <code>
                    <coding>
                        <system value="http://loinc.org" />
                        <code value="68493-6" />
                        <display value="Prenatal visits for this pregnancy #" />
                    </coding>
                    <text value="Prenatal visits for this pregnancy #" />
                </code>
                <subject>
                    <reference value="Patient/patient-child-babyg-quinn" />
                    <display value="BabyG Quinn" />
                </subject>
                <focus>
                    <reference value="Patient/patient-mother-jada-ann-quinn" />
                    <display value="Patient - Mother (Jada Ann Quinn)" />
                </focus>
                <effectiveDateTime value="2019-12-02" />
                <performer>
                    <reference value="Practitioner/practitioner-vital-records-janet-seito" />
                </performer>
                <valueInteger value="8" />
            </Observation>
        </resource>
    </entry>
    <entry>
        <fullUrl value="http://example.org/fhir/Observation/observation-last-menstrual-period-jada-ann-quinn" />
        <resource>
            <Observation>
                <id value="observation-last-menstrual-period-jada-ann-quinn" />
                <meta>
                    <profile value="http://hl7.org/fhir/us/vr-common-library/StructureDefinition/Observation-last-menstrual-period-vr" />
                </meta>
                <status value="final" />
                <code>
                    <coding>
                        <system value="http://loinc.org" />
                        <code value="8665-2" />
                        <display value="Last menstrual period start date" />
                    </coding>
                    <text value="Last menstrual period start date" />
                </code>
                <subject>
                    <reference value="Patient/patient-mother-jada-ann-quinn" />
                    <display value="Patient - Mother (Jada Ann Quinn)" />
                </subject>
                <effectiveDateTime value="2019-12-02" />
                <performer>
                    <reference value="Practitioner/practitioner-vital-records-janet-seito" />
                </performer>
                <valueDateTime value="2018-06-05" />
            </Observation>
        </resource>
    </entry>
    <entry>
        <fullUrl value="http://example.org/fhir/Observation/observation-number-births-now-living-jada-ann-quinn" />
        <resource>
            <Observation>
                <id value="observation-number-births-now-living-jada-ann-quinn" />
                <meta>
                    <profile value="http://hl7.org/fhir/us/vr-common-library/StructureDefinition/Observation-number-births-now-living-vr" />
                </meta>
                <status value="final" />
                <code>
                    <coding>
                        <system value="http://loinc.org" />
                        <code value="11638-4" />
                        <display value="[#] Births.still living" />
                    </coding>
                    <text value="[#] Births.still living" />
                </code>
                <subject>
                    <reference value="Patient/patient-mother-jada-ann-quinn" />
                    <display value="Patient - Mother (Jada Ann Quinn)" />
                </subject>
                <effectiveDateTime value="2019-12-02" />
                <performer>
                    <reference value="Practitioner/practitioner-vital-records-janet-seito" />
                </performer>
                <valueInteger value="1" />
            </Observation>
        </resource>
    </entry>
    <entry>
        <fullUrl value="http://example.org/fhir/Observation/observation-number-births-now-dead-jada-ann-quinn" />
        <resource>
            <Observation>
                <id value="observation-number-births-now-dead-jada-ann-quinn" />
                <meta>
                    <profile value="http://hl7.org/fhir/us/vr-common-library/StructureDefinition/Observation-number-births-now-dead-vr" />
                </meta>
                <status value="final" />
                <code>
                    <coding>
                        <system value="http://loinc.org" />
                        <code value="68496-9" />
                        <display value="Previous live births now dead #" />
                    </coding>
                    <text value="Previous live births now dead #" />
                </code>
                <subject>
                    <reference value="Patient/patient-mother-jada-ann-quinn" />
                    <display value="Patient - Mother (Jada Ann Quinn)" />
                </subject>
                <effectiveDateTime value="2019-12-02" />
                <performer>
                    <reference value="Practitioner/practitioner-vital-records-janet-seito" />
                </performer>
                <valueInteger value="0" />
            </Observation>
        </resource>
    </entry>
    <entry>
        <fullUrl value="http://example.org/fhir/Observation/observation-date-of-last-live-birth-jada-ann-quinn" />
        <resource>
            <Observation>
                <id value="observation-date-of-last-live-birth-jada-ann-quinn" />
                <meta>
                    <profile value="http://hl7.org/fhir/us/bfdr/StructureDefinition/Observation-date-of-last-live-birth" />
                </meta>
                <status value="final" />
                <code>
                    <coding>
                        <system value="http://loinc.org" />
                        <code value="68499-3" />
                        <display value="Date last live birth" />
                    </coding>
                    <text value="Date of last live birth" />
                </code>
                <subject>
                    <reference value="Patient/patient-child-babyg-quinn" />
                    <display value="BabyG Quinn" />
                </subject>
                <focus>
                    <reference value="Patient/patient-mother-jada-ann-quinn" />
                    <display value="Patient - Mother (Jada Ann Quinn)" />
                </focus>
                <effectiveDateTime value="2019-12-02" />
                <performer>
                    <reference value="Practitioner/practitioner-vital-records-janet-seito" />
                </performer>
                <valueDateTime value="2014-11-20" />
            </Observation>
        </resource>
    </entry>
    <entry>
        <fullUrl value="http://example.org/fhir/Observation/observation-number-other-pregnancy-outcomes-jada-ann-quinn" />
        <resource>
            <Observation>
                <id value="observation-number-other-pregnancy-outcomes-jada-ann-quinn" />
                <meta>
                    <profile value="http://hl7.org/fhir/us/vr-common-library/StructureDefinition/Observation-number-other-pregnancy-outcomes-vr" />
                </meta>
                <status value="final" />
                <code>
                    <coding>
                        <system value="http://loinc.org" />
                        <code value="69043-8" />
                        <display value="Other pregnancy outcomes #" />
                    </coding>
                    <text value="Other pregnancy outcomes #" />
                </code>
                <subject>
                    <reference value="Patient/patient-mother-jada-ann-quinn" />
                    <display value="Patient - Mother (Jada Ann Quinn)" />
                </subject>
                <effectiveDateTime value="2019-12-02" />
                <performer>
                    <reference value="Practitioner/practitioner-vital-records-janet-seito" />
                </performer>
                <valueInteger value="0" />
            </Observation>
        </resource>
    </entry>
    <entry>
        <fullUrl value="http://example.org/fhir/Observation/observation-date-of-last-other-pregnancy-outcome-jada-ann-quinn" />
        <resource>
            <Observation>
                <id value="observation-date-of-last-other-pregnancy-outcome-jada-ann-quinn" />
                <meta>
                    <profile value="http://hl7.org/fhir/us/bfdr/StructureDefinition/Observation-date-of-last-other-pregnancy-outcome" />
                </meta>
                <status value="final" />
                <code>
                    <coding>
                        <system value="http://loinc.org" />
                        <code value="68500-8" />
                        <display value="Date last other pregnancy outcome" />
                    </coding>
                    <text value="Date of last other pregnancy outcome" />
                </code>
                <subject>
                    <reference value="Patient/patient-child-babyg-quinn" />
                    <display value="BabyG Quinn" />
                </subject>
                <focus>
                    <reference value="Patient/patient-mother-jada-ann-quinn" />
                    <display value="Patient - Mother (Jada Ann Quinn)" />
                </focus>
                <effectiveDateTime value="2019-12-02" />
                <performer>
                    <reference value="Practitioner/practitioner-vital-records-janet-seito" />
                </performer>
                <valueDateTime value="2015-05" />
            </Observation>
        </resource>
    </entry>
    <entry>
        <fullUrl value="http://example.org/fhir/Coverage/coverage-principal-payer-for-delivery-jada-ann-quinn" />
        <resource>
            <Coverage>
                <id value="coverage-principal-payer-for-delivery-jada-ann-quinn" />
                <meta>
                    <profile value="http://hl7.org/fhir/us/bfdr/StructureDefinition/Coverage-principal-payer-for-delivery" />
                </meta>
                <status value="active" />
                <type>
                    <coding>
                        <system value="https://nahdo.org/sopt" />
                        <code value="5" />
                        <display value="PRIVATE HEALTH INSURANCE" />
                    </coding>
                    <text value="Private Health Insurance" />
                </type>
                <beneficiary>
                    <reference value="Patient/patient-mother-jada-ann-quinn" />
                    <display value="Patient - Mother (Jada Ann Quinn)" />
                </beneficiary>
                <payor>
                    <extension url="http://hl7.org/fhir/StructureDefinition/data-absent-reason">
                        <valueCode value="not-asked" />
                    </extension>
                    <display value="Not asked" />
                </payor>
            </Coverage>
        </resource>
    </entry>
    <entry>
        <fullUrl value="http://example.org/fhir/Observation/observation-mother-delivery-weight-jada-ann-quinn" />
        <resource>
            <Observation>
                <id value="observation-mother-delivery-weight-jada-ann-quinn" />
                <meta>
                    <profile value="http://hl7.org/fhir/us/vr-common-library/StructureDefinition/Observation-mother-delivery-weight-vr" />
                </meta>
                <status value="final" />
                <category>
                    <coding>
                        <system value="http://terminology.hl7.org/CodeSystem/observation-category" />
                        <code value="vital-signs" />
                        <display value="Vital Signs" />
                    </coding>
                    <text value="Vital Signs" />
                </category>
                <code>
                    <coding>
                        <system value="http://loinc.org" />
                        <code value="69461-2" />
                        <display value="Mother's body weight --at delivery" />
                    </coding>
                </code>
                <subject>
                    <reference value="Patient/patient-mother-jada-ann-quinn" />
                    <display value="Patient - Mother (Jada Ann Quinn)" />
                </subject>
                <effectiveDateTime value="2019-02-12" />
                <performer>
                    <reference value="Practitioner/practitioner-vital-records-janet-seito" />
                </performer>
                <valueQuantity>
                    <value value="175" />
                    <system value="http://unitsofmeasure.org" />
                    <code value="[lb_av]" />
                </valueQuantity>
            </Observation>
        </resource>
    </entry>
    <entry>
        <fullUrl value="http://example.org/fhir/Observation/observation-mother-height-jada-ann-quinn" />
        <resource>
            <Observation>
                <id value="observation-mother-height-jada-ann-quinn" />
                <meta>
                    <profile value="http://hl7.org/fhir/us/vr-common-library/StructureDefinition/Observation-mother-height-vr" />
                </meta>
                <status value="final" />
                <category>
                    <coding>
                        <system value="http://terminology.hl7.org/CodeSystem/observation-category" />
                        <code value="vital-signs" />
                        <display value="Vital Signs" />
                    </coding>
                    <text value="Vital Signs" />
                </category>
                <code>
                    <coding>
                        <system value="http://loinc.org" />
                        <code value="3137-7" />
                        <display value="Body height Measured" />
                    </coding>
                </code>
                <subject>
                    <reference value="Patient/patient-mother-jada-ann-quinn" />
                    <display value="Patient - Mother (Jada Ann Quinn)" />
                </subject>
                <effectiveDateTime value="2019-02-10" />
                <performer>
                    <reference value="Practitioner/practitioner-vital-records-janet-seito" />
                </performer>
                <valueQuantity>
                    <value value="67" />
                    <system value="http://unitsofmeasure.org" />
                    <code value="[in_i]" />
                </valueQuantity>
            </Observation>
        </resource>
    </entry>
    <entry>
        <fullUrl value="http://example.org/fhir/Observation/observation-mother-prepregnancy-weight-jada-ann-quinn" />
        <resource>
            <Observation>
                <id value="observation-mother-prepregnancy-weight-jada-ann-quinn" />
                <meta>
                    <profile value="http://hl7.org/fhir/us/vr-common-library/StructureDefinition/Observation-mother-prepregnancy-weight-vr" />
                </meta>
                <status value="final" />
                <category>
                    <coding>
                        <system value="http://terminology.hl7.org/CodeSystem/observation-category" />
                        <code value="vital-signs" />
                        <display value="Vital Signs" />
                    </coding>
                    <text value="Vital Signs" />
                </category>
                <code>
                    <coding>
                        <system value="http://loinc.org" />
                        <code value="56077-1" />
                        <display value="Body weight --pre current pregnancy" />
                    </coding>
                </code>
                <subject>
                    <reference value="Patient/patient-mother-jada-ann-quinn" />
                    <display value="Patient - Mother (Jada Ann Quinn)" />
                </subject>
                <effectiveDateTime value="2019-06-20" />
                <performer>
                    <reference value="Practitioner/practitioner-vital-records-janet-seito" />
                </performer>
                <valueQuantity>
                    <value value="145" />
                    <system value="http://unitsofmeasure.org" />
                    <code value="[lb_av]" />
                </valueQuantity>
            </Observation>
        </resource>
    </entry>
    <entry>
        <fullUrl value="http://example.org/fhir/Observation/observation-mother-received-wic-food-jada-ann-quinn" />
        <resource>
            <Observation>
                <id value="observation-mother-received-wic-food-jada-ann-quinn" />
                <meta>
                    <profile value="http://hl7.org/fhir/us/bfdr/StructureDefinition/Observation-mother-received-wic-food" />
                </meta>
                <status value="final" />
                <code>
                    <coding>
                        <system value="http://loinc.org" />
                        <code value="87303-4" />
                        <display value="Mother WIC food recipient" />
                    </coding>
                    <text value="Did mother get WIC food for herself during this pregnancy?" />
                </code>
                <subject>
                    <reference value="Patient/patient-child-babyg-quinn" />
                    <display value="BabyG Quinn" />
                </subject>
                <focus>
                    <reference value="Patient/patient-mother-jada-ann-quinn" />
                    <display value="Patient - Mother (Jada Ann Quinn)" />
                </focus>
                <effectiveDateTime value="2019-12-02" />
                <performer>
                    <reference value="Practitioner/practitioner-vital-records-janet-seito" />
                </performer>
                <valueCodeableConcept>
                    <coding>
                        <system value="http://terminology.hl7.org/CodeSystem/v2-0532" />
                        <code value="Y" />
                        <display value="Yes" />
                    </coding>
                </valueCodeableConcept>
            </Observation>
        </resource>
    </entry>
    <entry>
        <fullUrl value="http://example.org/fhir/Observation/observation-cig-smoking-pregnancy-1-jada-ann-quinn" />
        <resource>
            <Observation>
                <id value="observation-cig-smoking-pregnancy-1-jada-ann-quinn" />
                <meta>
                    <profile value="http://hl7.org/fhir/us/bfdr/StructureDefinition/Observation-cigarette-smoking-before-during-pregnancy" />
                </meta>
                <status value="final" />
                <code>
                    <coding>
                        <system value="http://loinc.org" />
                        <code value="64794-1" />
                        <display value="In the 3 months before you got pregnant, how many cigarettes did you smoke on an average day [PhenX]" />
                    </coding>
                    <text value="In the 3 months before you got pregnant, how many cigarettes did you smoke on an average day [PhenX]" />
                </code>
                <subject>
                    <reference value="Patient/patient-mother-jada-ann-quinn" />
                    <display value="Patient - Mother (Jada Ann Quinn)" />
                </subject>
                <focus>
                    <reference value="Patient/patient-child-babyg-quinn" />
                    <display value="BabyG Quinn" />
                </focus>
                <effectiveDateTime value="2019-12-02" />
                <performer>
                    <reference value="Practitioner/practitioner-vital-records-janet-seito" />
                </performer>
                <valueInteger value="20" />
            </Observation>
        </resource>
    </entry>
    <entry>
        <fullUrl value="http://example.org/fhir/Observation/observation-cig-smoking-pregnancy-2-jada-ann-quinn" />
        <resource>
            <Observation>
                <id value="observation-cig-smoking-pregnancy-2-jada-ann-quinn" />
                <meta>
                    <profile value="http://hl7.org/fhir/us/bfdr/StructureDefinition/Observation-cigarette-smoking-before-during-pregnancy" />
                </meta>
                <status value="final" />
                <code>
                    <coding>
                        <system value="http://loinc.org" />
                        <code value="87298-6" />
                        <display value="Cigarettes smoked per day by Mother--1st trimester" />
                    </coding>
                    <text value="Cigarettes smoked per day by Mother--1st trimester" />
                </code>
                <subject>
                    <reference value="Patient/patient-mother-jada-ann-quinn" />
                    <display value="Patient - Mother (Jada Ann Quinn)" />
                </subject>
                <focus>
                    <reference value="Patient/patient-child-babyg-quinn" />
                    <display value="BabyG Quinn" />
                </focus>
                <effectiveDateTime value="2019-12-02" />
                <performer>
                    <reference value="Practitioner/practitioner-vital-records-janet-seito" />
                </performer>
                <valueInteger value="3" />
            </Observation>
        </resource>
    </entry>
    <entry>
        <fullUrl value="http://example.org/fhir/Observation/observation-cig-smoking-pregnancy-3-jada-ann-quinn" />
        <resource>
            <Observation>
                <id value="observation-cig-smoking-pregnancy-3-jada-ann-quinn" />
                <meta>
                    <profile value="http://hl7.org/fhir/us/bfdr/StructureDefinition/Observation-cigarette-smoking-before-during-pregnancy" />
                </meta>
                <status value="final" />
                <code>
                    <coding>
                        <system value="http://loinc.org" />
                        <code value="87299-4" />
                        <display value="Cigarettes smoked per day by Mother--2nd trimester" />
                    </coding>
                    <text value="Cigarettes smoked per day by Mother--2nd trimester" />
                </code>
                <subject>
                    <reference value="Patient/patient-mother-jada-ann-quinn" />
                    <display value="Patient - Mother (Jada Ann Quinn)" />
                </subject>
                <focus>
                    <reference value="Patient/patient-child-babyg-quinn" />
                    <display value="BabyG Quinn" />
                </focus>
                <effectiveDateTime value="2019-12-02" />
                <performer>
                    <reference value="Practitioner/practitioner-vital-records-janet-seito" />
                </performer>
                <valueInteger value="1" />
            </Observation>
        </resource>
    </entry>
    <entry>
        <fullUrl value="http://example.org/fhir/Observation/observation-cig-smoking-pregnancy-4-jada-ann-quinn" />
        <resource>
            <Observation>
                <id value="observation-cig-smoking-pregnancy-4-jada-ann-quinn" />
                <meta>
                    <profile value="http://hl7.org/fhir/us/bfdr/StructureDefinition/Observation-cigarette-smoking-before-during-pregnancy" />
                </meta>
                <status value="final" />
                <code>
                    <coding>
                        <system value="http://loinc.org" />
                        <code value="64795-8" />
                        <display value="In the last 3 months of your pregnancy, how many cigarettes did you smoke on an average day [PhenX]" />
                    </coding>
                    <text value="In the last 3 months of your pregnancy, how many cigarettes did you smoke on an average day [PhenX]" />
                </code>
                <subject>
                    <reference value="Patient/patient-mother-jada-ann-quinn" />
                    <display value="Patient - Mother (Jada Ann Quinn)" />
                </subject>
                <focus>
                    <reference value="Patient/patient-child-babyg-quinn" />
                    <display value="BabyG Quinn" />
                </focus>
                <effectiveDateTime value="2019-12-02" />
                <performer>
                    <reference value="Practitioner/practitioner-vital-records-janet-seito" />
                </performer>
                <valueInteger value="0" />
            </Observation>
        </resource>
    </entry>
    <entry>
        <fullUrl value="http://example.org/fhir/Condition/condition-gestational-hypertension-jada-ann-quinn" />
        <resource>
            <Condition>
                <id value="condition-gestational-hypertension-jada-ann-quinn" />
                <meta>
                    <profile value="http://hl7.org/fhir/us/vr-common-library/StructureDefinition/Condition-gestational-hypertension-vr" />
                </meta>
                <clinicalStatus>
                    <coding>
                        <system value="http://terminology.hl7.org/CodeSystem/condition-clinical"/>
                        <code value="active"/>
                        <display value="Active"/>
                    </coding>
                    <text value="Active"/>
                </clinicalStatus>
                <category>
                    <coding>
                        <system value="http://terminology.hl7.org/CodeSystem/condition-category" />
                        <code value="problem-list-item" />
                    </coding>
                </category>
                <code>
                    <coding>
                        <system value="http://snomed.info/sct" />
                        <code value="48194001" />
                        <display value="Pregnancy-induced hypertension (disorder)" />
                    </coding>
                    <text value="Pregnancy-induced hypertension (disorder)" />
                </code>
                <subject>
                    <reference value="Patient/patient-mother-jada-ann-quinn" />
                    <display value="Patient - Mother (Jada Ann Quinn)" />
                </subject>
            </Condition>
        </resource>
    </entry>
    <entry>
        <fullUrl value="http://example.org/fhir/Observation/observation-number-previous-cesareans-jada-ann-quinn" />
        <resource>
            <Observation>
                <id value="observation-number-previous-cesareans-jada-ann-quinn" />
                <meta>
                    <profile value="http://hl7.org/fhir/us/vr-common-library/StructureDefinition/Observation-number-previous-cesareans-vr" />
                </meta>
                <status value="final" />
                <code>
                    <coding>
                        <system value="http://loinc.org" />
                        <code value="68497-7" />
                        <display value="Previous cesarean deliveries #" />
                    </coding>
                    <text value="Previous cesarean deliveries #" />
                </code>
                <subject>
                    <reference value="Patient/patient-mother-jada-ann-quinn" />
                    <display value="Patient - Mother (Jada Ann Quinn)" />
                </subject>
                <effectiveDateTime value="2019-12-02" />
                <performer>
                    <reference value="Practitioner/practitioner-vital-records-janet-seito" />
                </performer>
                <valueInteger value="1" />
            </Observation>
        </resource>
    </entry>
    <entry>
        <fullUrl value="http://example.org/fhir/Condition/condition-infection-present-during-pregnancy-jada-ann-quinn" />
        <resource>
            <Condition>
                <id value="condition-infection-present-during-pregnancy-jada-ann-quinn" />
                <meta>
                    <profile value="http://hl7.org/fhir/us/bfdr/StructureDefinition/Condition-infection-present-during-pregnancy" />
                </meta>
                <clinicalStatus>
                    <coding>
                        <system value="http://terminology.hl7.org/CodeSystem/condition-clinical"/>
                        <code value="active"/>
                        <display value="Active"/>
                    </coding>
                    <text value="Active"/>
                </clinicalStatus>
                <category>
                    <coding>
                        <system value="http://terminology.hl7.org/CodeSystem/condition-category" />
                        <code value="problem-list-item" />
                        <display value="Problem List Item" />
                    </coding>
                </category>
                <category>
                    <coding>
                        <system value="http://loinc.org" />
                        <code value="72519-2" />
                        <display value="Infections present AndOr treated during this pregnancy for live birth [US Standard Certificate of Live Birth]" />
                    </coding>
                </category>
                <code>
                    <coding>
                        <system value="http://snomed.info/sct" />
                        <code value="105629000" />
                        <display value="Chlamydial infection (disorder)" />
                    </coding>
                    <text value="Chlamydial infection (disorder)" />
                </code>
                <subject>
                    <reference value="Patient/patient-mother-jada-ann-quinn" />
                    <display value="Patient - Mother (Jada Ann Quinn)" />
                </subject>
            </Condition>
        </resource>
    </entry>
    <entry>
        <fullUrl value="http://example.org/fhir/Procedure/procedure-obstetric-procedure-jada-ann-quinn" />
        <resource>
            <Procedure>
                <id value="procedure-obstetric-procedure-jada-ann-quinn" />
                <meta>
                    <profile value="http://hl7.org/fhir/us/bfdr/StructureDefinition/Procedure-obstetric" />
                </meta>
                <status value="completed" />
                <code>
                    <coding>
                        <system value="http://snomed.info/sct" />
                        <code value="240278000" />
                        <display value="External cephalic version (procedure)" />
                    </coding>
                    <text value="External cephalic version: Failed" />
                </code>
                <subject>
                    <reference value="Patient/patient-mother-jada-ann-quinn" />
                    <display value="Patient - Mother (Jada Ann Quinn)" />
                </subject>
                <performedPeriod>
                    <start value="2019-02-07T08:30:00-07:00" />
                    <end value="2019-02-07T08:45:00-07:00" />
                </performedPeriod>
                <outcome>
                    <coding>
                        <system value="http://snomed.info/sct" />
                        <code value="385671000" />
                        <display value="Unsuccessful" />
                    </coding>
                    <text value="External cephalic version: Unsuccessful" />
                </outcome>
            </Procedure>
        </resource>
    </entry>
    <entry>
        <fullUrl value="http://example.org/fhir/Condition/condition-chorioamnionitis-jada-ann-quinn" />
        <resource>
            <Condition>
                <id value="condition-chorioamnionitis-jada-ann-quinn" />
                <meta>
                    <profile value="http://hl7.org/fhir/us/bfdr/StructureDefinition/Condition-chorioamnionitis" />
                </meta>
                <clinicalStatus>
                    <coding>
                        <system value="http://terminology.hl7.org/CodeSystem/condition-clinical"/>
                        <code value="active"/>
                        <display value="Active"/>
                    </coding>
                    <text value="Active"/>
                </clinicalStatus>
                <category>
                    <coding>
                        <system value="http://terminology.hl7.org/CodeSystem/condition-category" />
                        <code value="problem-list-item" />
                    </coding>
                </category>
                <code>
                    <coding>
                        <system value="http://snomed.info/sct" />
                        <code value="11612004" />
                        <display value="Chorioamnionitis (disorder)" />
                    </coding>
                </code>
                <subject>
                    <reference value="Patient/patient-mother-jada-ann-quinn" />
                    <display value="Patient - Mother (Jada Ann Quinn)" />
                </subject>
            </Condition>
        </resource>
    </entry>
    <entry>
        <fullUrl value="http://example.org/fhir/Procedure/procedure-induction-of-labor-jada-ann-quinn" />
        <resource>
            <Procedure>
                <id value="procedure-induction-of-labor-jada-ann-quinn" />
                <meta>
                    <profile value="http://hl7.org/fhir/us/bfdr/StructureDefinition/Procedure-induction-of-labor" />
                </meta>
                <status value="completed" />
                <code>
                    <coding>
                        <system value="http://snomed.info/sct" />
                        <code value="236958009" />
                        <display value="Induction of labor (procedure)" />
                    </coding>
                </code>
                <subject>
                    <reference value="Patient/patient-mother-jada-ann-quinn" />
                    <display value="Patient - Mother (Jada Ann Quinn)" />
                </subject>
                <performedPeriod>
                    <start value="2019-02-07T08:30:00-07:00" />
                    <end value="2019-02-07T08:45:00-07:00" />
                </performedPeriod>
            </Procedure>
        </resource>
    </entry>
    <entry>
        <fullUrl value="http://example.org/fhir/Observation/observation-fetal-presentation-babyg-quinn" />
        <resource>
            <Observation>
                <id value="observation-fetal-presentation-babyg-quinn" />
                <meta>
                    <profile value="http://hl7.org/fhir/us/bfdr/StructureDefinition/Observation-fetal-presentation" />
                </meta>
                <status value="final" />
                <code>
                    <coding>
                        <system value="http://loinc.org" />
                        <code value="73761-9" />
                        <display value="Fetal presentation--at birth [US Standard Certificate of Live Birth]" />
                    </coding>
                </code>
                <subject>
                    <reference value="Patient/patient-child-babyg-quinn" />
                    <display value="Patient - Child (Baby G Quinn)" />
                </subject>
                <effectiveDateTime value="2019-12-02" />
                <performer>
                    <reference value="Practitioner/practitioner-vital-records-janet-seito" />
                </performer>
                <valueCodeableConcept>
                    <coding>
                        <system value="http://snomed.info/sct" />
                        <code value="6096002" />
                        <display value="Breech presentation (finding)" />
                    </coding>
                </valueCodeableConcept>
            </Observation>
        </resource>
    </entry>
    <entry>
        <fullUrl value="http://example.org/fhir/Procedure/procedure-final-route-method-delivery-babyg-quinn" />
        <resource>
            <Procedure>
                <id value="procedure-final-route-method-delivery-babyg-quinn" />
                <meta>
                    <profile value="http://hl7.org/fhir/us/bfdr/StructureDefinition/Procedure-final-route-method-delivery" />
                </meta>
                <status value="completed" />
                <code>
                    <coding>
                        <system value="http://snomed.info/sct" />
                        <code value="11466000" />
                        <display value="Cesarean section" />
                    </coding>
                    <text value="Cesarean section" />
                </code>
                <subject>
                    <reference value="Patient/patient-mother-jada-ann-quinn" />
                    <display value="Patient - Mother (Jada Ann Quinn)" />
                </subject>
                <performedPeriod>
                    <start value="2019-02-12T12:45:00-07:00" />
                    <end value="2019-02-12T13:15:00-07:00" />
                </performedPeriod>
                <reasonReference>
                    <reference value="Observation/observation-labor-trial-attempted-babyg-quinn" />
                    <display value="Labor trial attempted - true" />
                </reasonReference>
            </Procedure>
        </resource>
    </entry>
    <entry>
        <fullUrl value="http://example.org/fhir/Condition/condition-ruptured-uterus-jada-ann-quinn" />
        <resource>
            <Condition>
                <id value="condition-ruptured-uterus-jada-ann-quinn" />
                <meta>
                    <profile value="http://hl7.org/fhir/us/bfdr/StructureDefinition/Condition-ruptured-uterus" />
                </meta>
                <clinicalStatus>
                    <coding>
                        <system value="http://terminology.hl7.org/CodeSystem/condition-clinical"/>
                        <code value="active"/>
                        <display value="Active"/>
                    </coding>
                    <text value="Active"/>
                </clinicalStatus>
                <category>
                    <coding>
                        <system value="http://terminology.hl7.org/CodeSystem/condition-category" />
                        <code value="problem-list-item" />
                        <display value="Problem List Item" />
                    </coding>
                </category>
                <code>
                    <coding>
                        <system value="http://snomed.info/sct" />
                        <code value="34430009" />
                        <display value="Rupture of uterus (disorder)" />
                    </coding>
                    <text value="Rupture of uterus (disorder)" />
                </code>
                <subject>
                    <reference value="Patient/patient-mother-jada-ann-quinn" />
                    <display value="Patient - Mother (Jada Ann Quinn)" />
                </subject>
            </Condition>
        </resource>
    </entry>
    <entry>
        <fullUrl value="http://example.org/fhir/Observation/observation-birth-weight-babyg-quinn" />
        <resource>
            <Observation>
                <id value="observation-birth-weight-babyg-quinn" />
                <meta>
                    <profile value="http://hl7.org/fhir/us/vr-common-library/StructureDefinition/Observation-birth-weight-vr" />
                </meta>
                <status value="final" />
                <category>
                    <coding>
                        <system value="http://terminology.hl7.org/CodeSystem/observation-category" />
                        <code value="vital-signs" />
                        <display value="Vital Signs" />
                    </coding>
                    <text value="Vital Signs" />
                </category>
                <code>
                    <coding>
                        <system value="http://loinc.org" />
                        <code value="8339-4" />
                        <display value="Birth weight Measured" />
                    </coding>
                </code>
                <subject>
                    <reference value="Patient/patient-child-babyg-quinn" />
                    <display value="BabyG Quinn" />
                </subject>
                <effectiveDateTime value="2019-02-10" />
                <performer>
                    <reference value="Practitioner/practitioner-vital-records-janet-seito" />
                </performer>
                <valueQuantity>
                    <value value="2500" />
                    <system value="http://unitsofmeasure.org" />
                    <code value="g" />
                </valueQuantity>
            </Observation>
        </resource>
    </entry>
    <entry>
        <fullUrl value="http://example.org/fhir/Observation/observation-gestational-age-at-delivery-babyg-quinn" />
        <resource>
            <Observation>
                <id value="observation-gestational-age-at-delivery-babyg-quinn" />
                <meta>
                    <profile value="http://hl7.org/fhir/us/vr-common-library/StructureDefinition/Observation-gestational-age-at-delivery-vr" />
                </meta>
                <status value="final" />
                <code>
                    <coding>
                        <system value="http://loinc.org" />
                        <code value="11884-4" />
                        <display value="Gestational age Estimated" />
                    </coding>
                </code>
                <subject>
                    <reference value="Patient/patient-child-babyg-quinn" />
                    <display value="BabyG Quinn" />
                </subject>
                <effectiveDateTime value="2019-12-02" />
                <performer>
                    <reference value="Practitioner/practitioner-vital-records-janet-seito" />
                </performer>
                <valueQuantity>
                    <value value="36" />
                    <system value="http://unitsofmeasure.org" />
                    <code value="wk" />
                </valueQuantity>
            </Observation>
        </resource>
    </entry>
    <entry>
        <fullUrl value="http://example.org/fhir/Observation/observation-apgar-score-babyg-quinn-1-min" />
        <resource>
            <Observation>
                <id value="observation-apgar-score-babyg-quinn-1-min" />
                <meta>
                    <profile value="http://hl7.org/fhir/us/vr-common-library/StructureDefinition/Observation-apgar-score-vr" />
                </meta>
                <status value="final" />
                <category>
                    <coding>
                        <system value="http://terminology.hl7.org/CodeSystem/observation-category" />
                        <code value="survey" />
                        <display value="Survey" />
                    </coding>
                    <text value="Survey" />
                </category>
                <code>
                    <coding>
                        <system value="http://loinc.org" />
                        <code value="9272-6" />
                        <display value="1 minute Apgar Score" />
                    </coding>
                    <text value="1 minute Apgar Score" />
                </code>
                <subject>
                    <reference value="Patient/patient-child-babyg-quinn" />
                    <display value="BabyG Quinn" />
                </subject>
                <effectiveDateTime value="2019-12-02" />
                <performer>
                    <reference value="Practitioner/practitioner-vital-records-janet-seito" />
                </performer>
                <valueInteger value="5" />
            </Observation>
        </resource>
    </entry>
    <entry>
        <fullUrl value="http://example.org/fhir/Observation/observation-apgar-score-babyg-quinn-5-min" />
        <resource>
            <Observation>
                <id value="observation-apgar-score-babyg-quinn-5-min" />
                <meta>
                    <profile value="http://hl7.org/fhir/us/vr-common-library/StructureDefinition/Observation-apgar-score-vr" />
                </meta>
                <status value="final" />
                <category>
                    <coding>
                        <system value="http://terminology.hl7.org/CodeSystem/observation-category" />
                        <code value="survey" />
                        <display value="Survey" />
                    </coding>
                    <text value="Survey" />
                </category>
                <code>
                    <coding>
                        <system value="http://loinc.org" />
                        <code value="9274-2" />
                        <display value="5 minute Apgar Score" />
                    </coding>
                    <text value="5 minute Apgar Score" />
                </code>
                <subject>
                    <reference value="Patient/patient-child-babyg-quinn" />
                    <display value="BabyG Quinn" />
                </subject>
                <effectiveDateTime value="2019-12-02" />
                <performer>
                    <reference value="Practitioner/practitioner-vital-records-janet-seito" />
                </performer>
                <valueInteger value="7" />
            </Observation>
        </resource>
    </entry>
    <entry>
        <fullUrl value="http://example.org/fhir/Condition/condition-congenital-anomaly-of-newborn-babyg-quinn" />
        <resource>
            <Condition>
                <id value="condition-congenital-anomaly-of-newborn-babyg-quinn" />
                <meta>
                    <profile value="http://hl7.org/fhir/us/bfdr/StructureDefinition/Condition-congenital-anomaly-of-newborn" />
                </meta>
                <clinicalStatus>
                    <coding>
                        <system value="http://terminology.hl7.org/CodeSystem/condition-clinical"/>
                        <code value="active"/>
                        <display value="Active"/>
                    </coding>
                    <text value="Active"/>
                </clinicalStatus>
                <category>
                    <coding>
                        <system value="http://terminology.hl7.org/CodeSystem/condition-category" />
                        <code value="problem-list-item" />
                        <display value="Problem List Item" />
                    </coding>
                </category>
                <category>
                    <coding>
                        <system value="http://loinc.org" />
                        <code value="73780-9" />
                        <display value="Congenital anomalies of the newborn [US Standard Certificate of Live Birth]" />
                    </coding>
                </category>
                <code>
                    <coding>
                        <system value="http://snomed.info/sct" />
                        <code value="12770006" />
                        <display value="Cyanotic congenital heart disease (disorder)" />
                    </coding>
                    <text value="Cyanotic congenital heart disease (disorder)" />
                </code>
                <subject>
                    <reference value="Patient/patient-child-babyg-quinn" />
                    <display value="BabyG Quinn" />
                </subject>
            </Condition>
        </resource>
    </entry>
    <entry>
        <fullUrl value="http://example.org/fhir/Condition/condition-congenital-anomaly-of-newborn-babyg-quinn-2" />
        <resource>
            <Condition>
                <id value="condition-congenital-anomaly-of-newborn-babyg-quinn-2" />
                <meta>
                    <profile value="http://hl7.org/fhir/us/bfdr/StructureDefinition/Condition-congenital-anomaly-of-newborn" />
                </meta>
                <clinicalStatus>
                    <coding>
                        <system value="http://terminology.hl7.org/CodeSystem/condition-clinical"/>
                        <code value="active"/>
                        <display value="Active"/>
                    </coding>
                    <text value="Active"/>
                </clinicalStatus>
                <category>
                    <coding>
                        <system value="http://terminology.hl7.org/CodeSystem/condition-category" />
                        <code value="problem-list-item" />
                        <display value="Problem List Item" />
                    </coding>
                </category>
                <category>
                    <coding>
                        <system value="http://loinc.org" />
                        <code value="73780-9" />
                        <display value="Congenital anomalies of the newborn [US Standard Certificate of Live Birth]" />
                    </coding>
                </category>
                <code>
                    <coding>
                        <system value="http://snomed.info/sct" />
                        <code value="70156005" />
                        <display value="Anomaly of chromosome pair 21 (disorder)" />
                    </coding>
                    <text value="Anomaly of chromosome pair 21 (disorder)" />
                </code>
                <subject>
                    <reference value="Patient/patient-child-babyg-quinn" />
                    <display value="Patient - Child (Baby G Quinn)" />
                </subject>
                <evidence>
                    <code>
                        <coding>
                            <system value="http://snomed.info/sct" />
                            <code value="312948004" />
                            <display value="Karyotype determination" />
                        </coding>
                        <text value="Karyotype determination pending" />
                    </code>
                </evidence>
            </Condition>
        </resource>
    </entry>
    <entry>
        <fullUrl value="http://example.org/fhir/Observation/observation-infant-living-babyg-quinn" />
        <resource>
            <Observation>
                <id value="observation-infant-living-babyg-quinn" />
                <meta>
                    <profile value="http://hl7.org/fhir/us/vr-common-library/StructureDefinition/Observation-infant-living-vr" />
                </meta>
                <status value="final" />
                <code>
                    <coding>
                        <system value="http://loinc.org" />
                        <code value="73757-7" />
                        <display value="Infant living at time of report [US Standard Certificate of Live Birth]" />
                    </coding>
                </code>
                <subject>
                    <reference value="Patient/patient-child-babyg-quinn" />
                    <display value="BabyG Quinn" />
                </subject>
                <effectiveDateTime value="2019-12-02" />
                <performer>
                    <reference value="Practitioner/practitioner-vital-records-janet-seito" />
                </performer>
                <valueBoolean value="true" />
            </Observation>
        </resource>
    </entry>
    <entry>
        <fullUrl value="http://example.org/fhir/Observation/observation-infant-breastfed-at-discharge-babyg-quinn" />
        <resource>
            <Observation>
                <id value="observation-infant-breastfed-at-discharge-babyg-quinn" />
                <meta>
                    <profile value="http://hl7.org/fhir/us/bfdr/StructureDefinition/Observation-infant-breastfed-at-discharge" />
                </meta>
                <status value="final" />
                <code>
                    <coding>
                        <system value="http://loinc.org" />
                        <code value="73756-9" />
                        <display value="Infant is being breastfed at discharge [US Standard Certificate of Live Birth]" />
                    </coding>
                    <text value="Infant is being breastfed at discharge [US Standard Certificate of Live Birth]" />
                </code>
                <subject>
                    <reference value="Patient/patient-child-babyg-quinn" />
                    <display value="BabyG Quinn" />
                </subject>
                <issued value="2019-02-15T09:45:00-07:00" />
                <valueBoolean value="true" />
            </Observation>
        </resource>
    </entry>
    <entry>
        <fullUrl value="http://example.org/fhir/Observation/observation-mother-married-during-pregnancy-jada-ann-quinn" />
        <resource>
            <Observation>
                <id value="observation-mother-married-during-pregnancy-jada-ann-quinn" />
                <meta>
                    <profile value="http://hl7.org/fhir/us/bfdr/StructureDefinition/Observation-mother-married-during-pregnancy" />
                </meta>
                <status value="final" />
                <code>
                    <coding>
                        <system value="http://loinc.org" />
                        <code value="87301-8" />
                        <display value="Mother was married at any time during pregnancy" />
                    </coding>
                    <text value="Was mother married at conception, at the time of birth, or at any time between conception and giving birth?" />
                </code>
                <subject>
                    <reference value="Patient/patient-child-babyg-quinn" />
                    <display value="BabyG Quinn" />
                </subject>
                <focus>
                    <reference value="Patient/patient-mother-jada-ann-quinn" />
                    <display value="Patient - Mother (Jada Ann Quinn)" />
                </focus>
                <effectiveDateTime value="2019-12-02" />
                <performer>
                    <reference value="Practitioner/practitioner-vital-records-janet-seito" />
                </performer>
                <valueCodeableConcept>
                    <coding>
                        <system value="http://terminology.hl7.org/CodeSystem/v2-0532" />
                        <code value="Y" />
                        <display value="Yes" />
                    </coding>
                </valueCodeableConcept>
            </Observation>
        </resource>
    </entry>
    <entry>
        <fullUrl value="http://example.org/fhir/Observation/observation-parent-education-level-jada-ann-quinn" />
        <resource>
            <Observation>
                <id value="observation-parent-education-level-jada-ann-quinn" />
                <meta>
                    <profile value="http://hl7.org/fhir/us/vr-common-library/StructureDefinition/Observation-parent-education-level-vr" />
                </meta>
                <status value="final" />
                <code>
                    <coding>
                        <system value="http://loinc.org" />
                        <code value="57712-2" />
                        <display value="Highest level of education Mother" />
                    </coding>
                </code>
                <subject>
                    <reference value="Patient/patient-child-babyg-quinn" />
                </subject>
                <focus>
                    <reference value="Patient/patient-mother-jada-ann-quinn" />
                </focus>
                <effectiveDateTime value="2019-12-02" />
                <performer>
                    <reference value="Practitioner/practitioner-vital-records-janet-seito" />
                </performer>
                <valueCodeableConcept>
                    <coding>
                        <system value="urn:oid:2.16.840.1.114222.4.5.274" />
                        <code value="PHC1455" />
                        <display value="Doctorate Degree or Professional Degree" />
                    </coding>
                    <text value="Doctorate Degree or Professional Degree" />
                </valueCodeableConcept>
            </Observation>
        </resource>
    </entry>
    <entry>
        <fullUrl value="http://example.org/fhir/Observation/observation-ssn-requested-for-child-babyg-quinn" />
        <resource>
            <Observation>
                <id value="observation-ssn-requested-for-child-babyg-quinn" />
                <meta>
                    <profile value="http://hl7.org/fhir/us/bfdr/StructureDefinition/Observation-ssn-requested-for-child" />
                </meta>
                <status value="final" />
                <code>
                    <coding>
                        <system value="http://loinc.org" />
                        <code value="87295-2" />
                        <display value="Social Security Number was requested" />
                    </coding>
                    <text value="Social security number requested for child" />
                </code>
                <subject>
                    <reference value="Patient/patient-child-babyg-quinn" />
                    <display value="BabyG Quinn" />
                </subject>
                <focus>
                    <reference value="Patient/patient-mother-jada-ann-quinn" />
                    <display value="Patient - Mother (Jada Ann Quinn)" />
                </focus>
                <effectiveDateTime value="2019-12-02" />
                <performer>
                    <reference value="Practitioner/practitioner-vital-records-janet-seito" />
                </performer>
                <valueBoolean value="true" />
            </Observation>
        </resource>
    </entry>
    <entry>
        <fullUrl value="http://example.org/fhir/RelatedPerson/relatedperson-father-natural-james-brandon-quinn" />
        <resource>
            <RelatedPerson>
                <id value="relatedperson-father-natural-james-brandon-quinn" />
                <meta>
                    <profile value="http://hl7.org/fhir/us/vr-common-library/StructureDefinition/RelatedPerson-father-natural-vr" />
                </meta>
                <extension url="http://hl7.org/fhir/us/core/StructureDefinition/us-core-race">
                    <extension url="ombCategory">
                        <valueCoding>
                            <system value="urn:oid:2.16.840.1.113883.6.238" />
                            <code value="2106-3" />
                            <display value="White" />
                        </valueCoding>
                    </extension>
                    <extension url="text">
                        <valueString value="White" />
                    </extension>
                </extension>
                <extension url="http://hl7.org/fhir/us/core/StructureDefinition/us-core-ethnicity">
                    <extension url="ombCategory">
                        <valueCoding>
                            <system value="urn:oid:2.16.840.1.113883.6.238" />
                            <code value="2186-5" />
                            <display value="Not Hispanic or Latino" />
                        </valueCoding>
                    </extension>
                    <extension url="text">
                        <valueString value="Not Hispanic or Latino" />
                    </extension>
                </extension>
                <extension url="http://hl7.org/fhir/us/vr-common-library/StructureDefinition/Extension-relatedperson-birthplace-vr">
                    <valueAddress>
                        <state value="NY" />
                    </valueAddress>
                </extension>
                <identifier>
                    <type>
                        <coding>
                            <system value="http://terminology.hl7.org/CodeSystem/v2-0203" />
                            <code value="SS" />
                        </coding>
                    </type>
                    <system value="http://hl7.org/fhir/sid/us-ssn" />
                    <value value="132225987" />
                </identifier>
                <active value="true" />
                <patient>
                    <reference value="Patient/patient-child-babyg-quinn" />
                </patient>
                <relationship>
                    <coding>
                        <system value="http://terminology.hl7.org/CodeSystem/v3-RoleCode" />
                        <code value="NFTH" />
                        <display value="natural father" />
                    </coding>
                    <text value="Natural Father" />
                </relationship>
                <name>
                    <use value="official" />
                    <family value="Quinn" />
                    <given value="James" />
                    <given value="Brandon" />
                </name>
                <gender value="male" />
                <birthDate value="1972-11-24" />
            </RelatedPerson>
        </resource>
    </entry>
    <entry>
        <fullUrl value="http://example.org/fhir/Observation/observation-paternity-acknowledgement-signed-james-quinn" />
        <resource>
            <Observation>
                <id value="observation-paternity-acknowledgement-signed-james-quinn" />
                <meta>
                    <profile value="http://hl7.org/fhir/us/bfdr/StructureDefinition/Observation-paternity-acknowledgement-signed" />
                </meta>
                <status value="final" />
                <code>
                    <coding>
                        <system value="http://loinc.org" />
                        <code value="87302-6" />
                        <display value="Paternity acknowledgment form signed Father" />
                    </coding>
                    <text value="Paternity acknowledgment form signed Father" />
                </code>
                <subject>
                    <reference value="Patient/patient-child-babyg-quinn" />
                    <display value="Patient - Child (Baby G Quinn)" />
                </subject>
                <focus>
                    <reference value="RelatedPerson/relatedperson-father-natural-james-brandon-quinn" />
                    <display value="RelatedPerson - Father (James Brandon Quinn)" />
                </focus>
                <effectiveDateTime value="2019-12-02" />
                <performer>
                    <reference value="Practitioner/practitioner-vital-records-janet-seito" />
                </performer>
                <valueCodeableConcept>
                    <coding>
                        <system value="http://terminology.hl7.org/CodeSystem/v2-0532" />
                        <code value="Y" />
                        <display value="Yes" />
                    </coding>
                </valueCodeableConcept>
            </Observation>
        </resource>
    </entry>
    <entry>
        <fullUrl value="http://example.org/fhir/Observation/observation-parent-education-level-james-quinn" />
        <resource>
            <Observation>
                <id value="observation-parent-education-level-james-quinn" />
                <meta>
                    <profile value="http://hl7.org/fhir/us/vr-common-library/StructureDefinition/Observation-parent-education-level-vr" />
                </meta>
                <status value="final" />
                <code>
                    <coding>
                        <system value="http://loinc.org" />
                        <code value="87300-0" />
                        <display value="Highest level of education Father" />
                    </coding>
                </code>
                <subject>
                    <reference value="Patient/patient-child-babyg-quinn" />
                </subject>
                <focus>
                    <reference value="RelatedPerson/relatedperson-father-natural-james-brandon-quinn" />
                </focus>
                <effectiveDateTime value="2019-12-02" />
                <performer>
                    <reference value="Practitioner/practitioner-vital-records-janet-seito" />
                </performer>
                <valueCodeableConcept>
                    <coding>
                        <system value="urn:oid:2.16.840.1.114222.4.5.274" />
                        <code value="PHC1455" />
                        <display value="Doctorate Degree or Professional Degree" />
                    </coding>
                    <text value="Doctorate Degree or Professional Degree" />
                </valueCodeableConcept>
            </Observation>
        </resource>
    </entry>
    <entry>
        <fullUrl value="http://example.org/fhir/Observation/observation-edit-birth-weight-babyg-quinn" />
        <resource>
            <Observation>
                <id value="observation-edit-birth-weight-babyg-quinn" />
                <meta>
                    <profile value="http://hl7.org/fhir/us/bfdr/StructureDefinition/Observation-edit-flag-birthweight" />
                </meta>
                <status value="final" />
                <code>
                    <coding>
                        <system value="urn:oid:2.16.840.1.114222.4.5.274" />
                        <code value="PCH1478" />
                        <display value="Birth weight Edit flag" />
                    </coding>
                </code>
                <subject>
                    <reference value="Patient/patient-child-babyg-quinn" />
                    <display value="BabyG Quinn" />
                </subject>
                <effectiveDateTime value="2019-12-02" />
                <performer>
                    <reference value="Practitioner/practitioner-vital-records-janet-seito" />
                </performer>
                <valueCodeableConcept>
                    <coding>
                        <system value="urn:oid:2.16.840.1.114222.4.5.274" />
                        <code value="PHC1380" />
                        <display value="Off" />
                    </coding>
                </valueCodeableConcept>
            </Observation>
        </resource>
    </entry>
    <entry>
        <fullUrl value="http://example.org/fhir/Observation/observation-edit-flag-estimate-of-gestation-example" />
        <resource>
            <Observation>
                <id value="observation-edit-flag-estimate-of-gestation-example" />
                <meta>
                    <profile value="http://hl7.org/fhir/us/bfdr/StructureDefinition/Observation-edit-flag-estimate-of-gestation" />
                </meta>
                <status value="final" />
                <code>
                    <coding>
                        <system value="urn:oid:2.16.840.1.114222.4.5.274" />
                        <code value="PHC1481" />
                        <display value="Gestation age Edit flag" />
                    </coding>
                </code>
                <subject>
                    <reference value="Patient/patient-child-babyg-quinn" />
                    <display value="BabyG Quinn" />
                </subject>
                <effectiveDateTime value="2019-12-02" />
                <performer>
                    <reference value="Practitioner/practitioner-vital-records-janet-seito" />
                </performer>
                <valueCodeableConcept>
                    <coding>
                        <system value="urn:oid:2.16.840.1.114222.4.5.274" />
                        <code value="PHC1380" />
                        <display value="Off" />
                    </coding>
                </valueCodeableConcept>
            </Observation>
        </resource>
    </entry>
    <entry>
        <fullUrl value="http://example.org/fhir/Observation/observation-edit-flag-fathers-date-of-birth-example" />
        <resource>
            <Observation>
                <id value="observation-edit-flag-fathers-date-of-birth-example" />
                <meta>
                    <profile value="http://hl7.org/fhir/us/bfdr/StructureDefinition/Observation-edit-flag-fathers-date-of-birth" />
                </meta>
                <status value="final" />
                <code>
                    <coding>
                        <system value="urn:oid:2.16.840.1.114222.4.5.274" />
                        <code value="PHC1479" />
                        <display value="Fathers birthdate Edit flag" />
                    </coding>
                </code>
                <subject>
                    <reference value="Patient/patient-child-babyg-quinn" />
                    <display value="BabyG Quinn" />
                </subject>
                <effectiveDateTime value="2019-12-02" />
                <performer>
                    <reference value="Practitioner/practitioner-vital-records-janet-seito" />
                </performer>
                <valueCodeableConcept>
                    <coding>
                        <system value="urn:oid:2.16.840.1.114222.4.5.274" />
                        <code value="PHC2143" />
                        <display value="Data queried" />
                    </coding>
                </valueCodeableConcept>
            </Observation>
        </resource>
    </entry>
    <entry>
        <fullUrl value="http://example.org/fhir/Observation/observation-edit-flag-fathers-education-example" />
        <resource>
            <Observation>
                <id value="observation-edit-flag-fathers-education-example" />
                <meta>
                    <profile value="http://hl7.org/fhir/us/bfdr/StructureDefinition/Observation-edit-flag-fathers-education" />
                </meta>
                <status value="final" />
                <code>
                    <coding>
                        <system value="urn:oid:2.16.840.1.114222.4.5.274" />
                        <code value="PHC1480" />
                        <display value="Fathers education Edit flag" />
                    </coding>
                </code>
                <subject>
                    <reference value="Patient/patient-child-babyg-quinn" />
                    <display value="BabyG Quinn" />
                </subject>
                <effectiveDateTime value="2019-12-02" />
                <performer>
                    <reference value="Practitioner/practitioner-vital-records-janet-seito" />
                </performer>
                <valueCodeableConcept>
                    <coding>
                        <system value="urn:oid:2.16.840.1.114222.4.5.274" />
                        <code value="PHC1362" />
                        <display value="Edit Passed" />
                    </coding>
                </valueCodeableConcept>
            </Observation>
        </resource>
    </entry>
    <entry>
        <fullUrl value="http://example.org/fhir/Observation/observation-edit-flag-mothers-date-of-birth-example" />
        <resource>
            <Observation>
                <id value="observation-edit-flag-mothers-date-of-birth-example" />
                <meta>
                    <profile value="http://hl7.org/fhir/us/bfdr/StructureDefinition/Observation-edit-flag-mothers-date-of-birth" />
                </meta>
                <status value="final" />
                <code>
                    <coding>
                        <system value="urn:oid:2.16.840.1.114222.4.5.274" />
                        <code value="PHC1482" />
                        <display value="Mothers birthdate Edit flag" />
                    </coding>
                </code>
                <subject>
                    <reference value="Patient/patient-child-babyg-quinn" />
                    <display value="BabyG Quinn" />
                </subject>
                <effectiveDateTime value="2019-12-02" />
                <performer>
                    <reference value="Practitioner/practitioner-vital-records-janet-seito" />
                </performer>
                <valueCodeableConcept>
                    <coding>
                        <system value="urn:oid:2.16.840.1.114222.4.5.274" />
                        <code value="PHC1362" />
                        <display value="Edit Passed" />
                    </coding>
                </valueCodeableConcept>
            </Observation>
        </resource>
    </entry>
    <entry>
        <fullUrl value="http://example.org/fhir/Observation/observation-edit-flag-mothers-delivery-weight-example" />
        <resource>
            <Observation>
                <id value="observation-edit-flag-mothers-delivery-weight-example" />
                <meta>
                    <profile value="http://hl7.org/fhir/us/bfdr/StructureDefinition/Observation-edit-flag-mothers-delivery-weight" />
                </meta>
                <status value="final" />
                <code>
                    <coding>
                        <system value="urn:oid:2.16.840.1.114222.4.5.274" />
                        <code value="PHC1483" />
                        <display value="Mothers delivery weight Edit flag" />
                    </coding>
                </code>
                <subject>
                    <reference value="Patient/patient-child-babyg-quinn" />
                    <display value="BabyG Quinn" />
                </subject>
                <effectiveDateTime value="2019-12-02" />
                <performer>
                    <reference value="Practitioner/practitioner-vital-records-janet-seito" />
                </performer>
                <valueCodeableConcept>
                    <coding>
                        <system value="urn:oid:2.16.840.1.114222.4.5.274" />
                        <code value="PHC1362" />
                        <display value="Edit Passed" />
                    </coding>
                </valueCodeableConcept>
            </Observation>
        </resource>
    </entry>
    <entry>
        <fullUrl value="http://example.org/fhir/Observation/observation-edit-flag-mothers-education-example" />
        <resource>
            <Observation>
                <id value="observation-edit-flag-mothers-education-example" />
                <meta>
                    <profile value="http://hl7.org/fhir/us/bfdr/StructureDefinition/Observation-edit-flag-mothers-education" />
                </meta>
                <status value="final" />
                <code>
                    <coding>
                        <system value="urn:oid:2.16.840.1.114222.4.5.274" />
                        <code value="PHC1484" />
                        <display value="Mothers education Edit flag" />
                    </coding>
                </code>
                <subject>
                    <reference value="Patient/patient-child-babyg-quinn" />
                    <display value="BabyG Quinn" />
                </subject>
                <effectiveDateTime value="2019-12-02" />
                <performer>
                    <reference value="Practitioner/practitioner-vital-records-janet-seito" />
                </performer>
                <valueCodeableConcept>
                    <coding>
                        <system value="urn:oid:2.16.840.1.114222.4.5.274" />
                        <code value="PHC1362" />
                        <display value="Edit Passed" />
                    </coding>
                </valueCodeableConcept>
            </Observation>
        </resource>
    </entry>
    <entry>
        <fullUrl value="http://example.org/fhir/Observation/observation-edit-flag-mothers-height-example" />
        <resource>
            <Observation>
                <id value="observation-edit-flag-mothers-height-example" />
                <meta>
                    <profile value="http://hl7.org/fhir/us/bfdr/StructureDefinition/Observation-edit-flag-mothers-height" />
                </meta>
                <status value="final" />
                <code>
                    <coding>
                        <system value="urn:oid:2.16.840.1.114222.4.5.274" />
                        <code value="PHC1485" />
                        <display value="Mothers height Edit flag" />
                    </coding>
                </code>
                <subject>
                    <reference value="Patient/patient-child-babyg-quinn" />
                    <display value="BabyG Quinn" />
                </subject>
                <effectiveDateTime value="2019-12-02" />
                <performer>
                    <reference value="Practitioner/practitioner-vital-records-janet-seito" />
                </performer>
                <valueCodeableConcept>
                    <coding>
                        <system value="urn:oid:2.16.840.1.114222.4.5.274" />
                        <code value="PHC1362" />
                        <display value="Edit Passed" />
                    </coding>
                </valueCodeableConcept>
            </Observation>
        </resource>
    </entry>
    <entry>
        <fullUrl value="http://example.org/fhir/Observation/observation-edit-flag-mothers-prepregnancy-weight-example" />
        <resource>
            <Observation>
                <id value="observation-edit-flag-mothers-prepregnancy-weight-example" />
                <meta>
                    <profile value="http://hl7.org/fhir/us/bfdr/StructureDefinition/Observation-edit-flag-mothers-prepregnancy-weight" />
                </meta>
                <status value="final" />
                <code>
                    <coding>
                        <system value="urn:oid:2.16.840.1.114222.4.5.274" />
                        <code value="PHC1486" />
                        <display value="Mothers Prepregnancy Weight Edit flag" />
                    </coding>
                </code>
                <subject>
                    <reference value="Patient/patient-child-babyg-quinn" />
                    <display value="BabyG Quinn" />
                </subject>
                <effectiveDateTime value="2019-12-02" />
                <performer>
                    <reference value="Practitioner/practitioner-vital-records-janet-seito" />
                </performer>
                <valueCodeableConcept>
                    <coding>
                        <system value="urn:oid:2.16.840.1.114222.4.5.274" />
                        <code value="PHC1362" />
                        <display value="Edit Passed" />
                    </coding>
                </valueCodeableConcept>
            </Observation>
        </resource>
    </entry>
    <entry>
        <fullUrl value="http://example.org/fhir/Observation/observation-edit-flag-number-prenatal-care-visits-example" />
        <resource>
            <Observation>
                <id value="observation-edit-flag-number-prenatal-care-visits-example" />
                <meta>
                    <profile value="http://hl7.org/fhir/us/bfdr/StructureDefinition/Observation-edit-flag-number-prenatal-care-visits" />
                </meta>
                <status value="final" />
                <code>
                    <coding>
                        <system value="urn:oid:2.16.840.1.114222.4.5.274" />
                        <code value="PHC1487" />
                        <display value="Number of Prenatal Vitis Edit flag" />
                    </coding>
                </code>
                <subject>
                    <reference value="Patient/patient-child-babyg-quinn" />
                    <display value="BabyG Quinn" />
                </subject>
                <effectiveDateTime value="2019-12-02" />
                <performer>
                    <reference value="Practitioner/practitioner-vital-records-janet-seito" />
                </performer>
                <valueCodeableConcept>
                    <coding>
                        <system value="urn:oid:2.16.840.1.114222.4.5.274" />
                        <code value="PHC1362" />
                        <display value="Edit Passed" />
                    </coding>
                </valueCodeableConcept>
            </Observation>
        </resource>
    </entry>
    <entry>
        <fullUrl value="http://example.org/fhir/Observation/observation-edit-flag-number-previous-cesareans-example" />
        <resource>
            <Observation>
                <id value="observation-edit-flag-number-previous-cesareans-example" />
                <meta>
                    <profile value="http://hl7.org/fhir/us/bfdr/StructureDefinition/Observation-edit-flag-number-previous-cesareans" />
                </meta>
                <status value="final" />
                <code>
                    <coding>
                        <system value="urn:oid:2.16.840.1.114222.4.5.274" />
                        <code value="PHC1488" />
                        <display value="Previous Cesarians Edit flag" />
                    </coding>
                </code>
                <subject>
                    <reference value="Patient/patient-child-babyg-quinn" />
                    <display value="BabyG Quinn" />
                </subject>
                <effectiveDateTime value="2019-12-02" />
                <performer>
                    <reference value="Practitioner/practitioner-vital-records-janet-seito" />
                </performer>
                <valueCodeableConcept>
                    <coding>
                        <system value="urn:oid:2.16.840.1.114222.4.5.274" />
                        <code value="PHC1362" />
                        <display value="Edit Passed" />
                    </coding>
                </valueCodeableConcept>
            </Observation>
        </resource>
    </entry>
    <entry>
        <fullUrl value="http://example.org/fhir/Observation/observation-edit-flag-plurality-example" />
        <resource>
            <Observation>
                <id value="observation-edit-flag-plurality-example" />
                <meta>
                    <profile value="http://hl7.org/fhir/us/bfdr/StructureDefinition/Observation-edit-flag-plurality" />
                </meta>
                <status value="final" />
                <code>
                    <coding>
                        <system value="urn:oid:2.16.840.1.114222.4.5.274" />
                        <code value="PHC1489" />
                        <display value="Plurality Edit flag" />
                    </coding>
                </code>
                <subject>
                    <reference value="Patient/patient-child-babyg-quinn" />
                    <display value="BabyG Quinn" />
                </subject>
                <effectiveDateTime value="2019-12-02" />
                <performer>
                    <reference value="Practitioner/practitioner-vital-records-janet-seito" />
                </performer>
                <valueCodeableConcept>
                    <coding>
                        <system value="urn:oid:2.16.840.1.114222.4.5.274" />
                        <code value="PHC1494" />
                        <display value="Queried, and Correct" />
                    </coding>
                </valueCodeableConcept>
            </Observation>
        </resource>
    </entry>
    <entry>
        <fullUrl value="http://example.org/fhir/Practitioner/practitioner-vital-records-avery-jones" />
        <resource>
            <Practitioner>
                <id value="practitioner-vital-records-avery-jones" />
                <meta>
                    <profile value="http://hl7.org/fhir/us/vr-common-library/StructureDefinition/Practitioner-vr" />
                </meta>
                <identifier>
                    <system value="http://hl7.org/fhir/sid/us-npi" />
                    <value value="223347044" />
                </identifier>
                <name>
                    <family value="Jones" />
                    <given value="Avery" />
                    <suffix value="M.D." />
                </name>
                <!-- Using the osteo code until PhinVads updates the value set with an active code for Medical Doctor -->
                <qualification>
                    <code>
                        <coding>
                            <system value="http://snomed.info/sct" />
                            <code value="76231001" />
                            <display value="Osteopath (occupation)" />
                        </coding>
                    </code>
                </qualification>
            </Practitioner>
        </resource>
    </entry>
    <entry>
        <fullUrl value="http://example.org/fhir/Location/location-east-hospital" />
        <resource>
            <Location>
                <id value="location-east-hospital" />
                <meta>
                    <profile value="http://hl7.org/fhir/us/core/StructureDefinition/us-core-location" />
                </meta>
                <status value="active" />
                <name value="East Hospital" />
                <type>
                    <coding>
                        <system value="http://terminology.hl7.org/CodeSystem/v3-RoleCode" />
                        <code value="HOSP" />
                        <display value="Hospital" />
                    </coding>
                </type>
            </Location>
        </resource>
    </entry>
    <entry>
        <fullUrl value="http://example.org/fhir/Location/location-south-hospital" />
        <resource>
            <Location>
                <id value="location-south-hospital" />
                <meta>
                    <profile value="http://hl7.org/fhir/us/core/StructureDefinition/us-core-location" />
                </meta>
                <status value="active" />
                <name value="South Hospital" />
                <type>
                    <coding>
                        <system value="http://terminology.hl7.org/CodeSystem/v3-RoleCode" />
                        <code value="HOSP" />
                        <display value="Hospital" />
                    </coding>
                </type>
            </Location>
        </resource>
    </entry>
    <entry>
        <fullUrl value="http://example.org/fhir/Location/location-north-hospital" />
        <resource>
            <Location>
                <id value="location-north-hospital" />
                <meta>
                    <profile value="http://hl7.org/fhir/us/core/StructureDefinition/us-core-location" />
                </meta>
                <status value="active" />
                <name value="North Hospital" />
                <type>
                    <coding>
                        <system value="http://terminology.hl7.org/CodeSystem/v3-RoleCode" />
                        <code value="HOSP" />
                        <display value="Hospital" />
                    </coding>
                </type>
            </Location>
        </resource>
    </entry>
    <entry>
        <fullUrl value="http://example.org/fhir/Organization/organization-south-hospital" />
        <resource>
            <Organization>
                <id value="organization-south-hospital" />
                <identifier>
                    <system value="http://hl7.org/fhir/sid/us-npi" />
                    <value value="5555512" />
                </identifier>
                <active value="true" />
                <type>
                    <coding>
                        <system value="http://terminology.hl7.org/CodeSystem/v3-RoleCode" />
                        <code value="HOSP" />
                        <display value="Hospital" />
                    </coding>
                </type>
                <name value="South Hospital" />
                <telecom>
                    <system value="phone" />
                    <value value="+1-555-555-1111" />
                </telecom>
                <telecom>
                    <system value="email" />
                    <value value="mail@southhospital.com" />
                </telecom>
                <address>
                    <line value="2100 North Ave" />
                    <city value="Salt Lake City" />
                    <state value="UT" />
                    <postalCode value="84116" />
                    <country value="US" />
                </address>
            </Organization>
        </resource>
    </entry>
    <entry>
        <fullUrl value="http://example.org/fhir/Observation/observation-labor-trial-attempted-babyg-quinn" />
        <resource>
            <Observation>
                <id value="observation-labor-trial-attempted-babyg-quinn" />
                <meta>
                    <profile value="http://hl7.org/fhir/us/bfdr/StructureDefinition/Observation-labor-trial-attempted" />
                </meta>
                <status value="final" />
                <code>
                    <coding>
                        <system value="http://loinc.org" />
                        <code value="73760-1" />
                        <display value="If cesarean, a trial of labor was attempted [US Standard Certificate of Live Birth]" />
                    </coding>
                    <text value="If cesarean, a trial of labor was attempted [US Standard Certificate of Live Birth]" />
                </code>
                <subject>
                    <reference value="Patient/patient-child-babyg-quinn" />
                    <display value="BabyG Quinn" />
                </subject>
                <focus>
                    <reference value="Patient/patient-mother-jada-ann-quinn" />
                    <display value="Patient - Mother (Jada Ann Quinn)" />
                </focus>
                <issued value="2019-02-12T08:55:30-07:00" />
                <valueBoolean value="true" />
            </Observation>
        </resource>
    </entry>
    <entry>
        <fullUrl value="http://example.org/fhir/RelatedPerson/relatedperson-mother-jada-ann-quinn" />
        <resource>
            <RelatedPerson>
                <id value="relatedperson-mother-jada-ann-quinn" />
                <meta>
                    <profile value="http://hl7.org/fhir/us/vr-common-library/StructureDefinition/RelatedPerson-mother-gestational-vr" />
                </meta>
                <extension url="http://hl7.org/fhir/us/core/StructureDefinition/us-core-race">
                    <extension url="ombCategory">
                        <valueCoding>
                            <system value="urn:oid:2.16.840.1.113883.6.238" />
                            <code value="2106-3" />
                            <display value="White" />
                        </valueCoding>
                    </extension>
                    <extension url="ombCategory">
                        <valueCoding>
                            <system value="urn:oid:2.16.840.1.113883.6.238" />
                            <code value="1002-5" />
                            <display value="American Indian or Alaska Native" />
                        </valueCoding>
                    </extension>
                    <extension url="text">
                        <valueString value="White, American Indian or Alaska Native" />
                    </extension>
                </extension>
                <extension url="http://hl7.org/fhir/us/core/StructureDefinition/us-core-ethnicity">
                    <extension url="ombCategory">
                        <valueCoding>
                            <system value="urn:oid:2.16.840.1.113883.6.238" />
                            <code value="2186-5" />
                            <display value="Not Hispanic or Latino" />
                        </valueCoding>
                    </extension>
                    <extension url="text">
                        <valueString value="Not Hispanic or Latino" />
                    </extension>
                </extension>
                <identifier>
                    <use value="usual" />
                    <type>
                        <coding>
                            <system value="http://terminology.hl7.org/CodeSystem/v2-0203" />
                            <code value="SS" />
                            <display value="Social Security number" />
                        </coding>
                    </type>
                    <system value="http://hl7.org/fhir/sid/us-ssn" />
                    <value value="132225986" />
                </identifier>
                <active value="true" />
                <patient>
                    <reference value="Patient/patient-child-babyg-quinn" />
                </patient>
                <relationship>
                    <coding>
                        <system value="http://terminology.hl7.org/CodeSystem/v3-RoleCode" />
                        <code value="GESTM" />
                        <display value="gestational mother" />
                    </coding>
                    <text value="Gestational Mother" />
                </relationship>
                <name>
                    <use value="official" />
                    <family value="Quinn" />
                    <given value="Jada" />
                    <given value="Ann" />
                </name>
                <telecom>
                    <system value="phone" />
                    <value value="1-(404)555-1212" />
                    <use value="home" />
                </telecom>
                <telecom>
                    <system value="email" />
                    <value value="jadaann.quinn@example.com" />
                </telecom>
                <gender value="female" />
                <birthDate value="1985-01-15" />
                <address>
                    <use value="home" />
                    <line value="1875 West Morton Avenue" />
                    <city value="Salt Lake City" />
                    <district value="Salt Lake" />
                    <state value="UT" />
                    <postalCode value="84116" />
                    <country value="US" />
                </address>
            </RelatedPerson>
        </resource>
    </entry>
</Bundle>
