<?xml version="1.0" encoding="UTF-8"?>
<Bundle
    xmlns="http://hl7.org/fhir">
    <id value="bundle-provider-live-birth-babyg-quinn"/>
    <meta>
        <versionId value="3"/>
        <lastUpdated value="2023-07-07T01:28:27.228Z"/>
        <profile value="http://hl7.org/fhir/us/bfdr/StructureDefinition/Bundle-document-bfdr"/>
    </meta>
    <identifier>
        <system value="urn:ietf:rfc:3986"/>
        <value value="urn:uuid:18825bb1-1acb-48c4-9b45-baa612640ba5"/>
    </identifier>
    <type value="document"/>
    <timestamp value="2019-02-11T02:05:44.434Z"/>
    <entry>
        <fullUrl value="http://example.org/fhir/Composition/composition-provider-live-birth-babyg-quinn"/>
        <resource>
            <Composition>
                <id value="composition-provider-live-birth-babyg-quinn"/>
                <meta>
                    <profile value="http://hl7.org/fhir/us/bfdr/StructureDefinition/Composition-provider-live-birth-report"/>
                </meta>
                <extension url="http://hl7.org/fhir/us/bfdr/StructureDefinition/Extension-live-birth-certificate-number">
                    <valueIdentifier>
                        <type>
                            <coding>
                                <system value="http://terminology.hl7.org/CodeSystem/v2-0203"/>
                                <code value="BCT"/>
                            </coding>
                        </type>
                        <value value="15075"/>
                    </valueIdentifier>
                </extension>
                <extension url="http://hl7.org/fhir/us/bfdr/StructureDefinition/Extension-live-birth-local-file-number">
                    <valueIdentifier>
                        <type>
                            <coding>
                                <system value="http://terminology.hl7.org/CodeSystem/v2-0203"/>
                                <code value="BCFN"/>
                            </coding>
                        </type>
                        <value value="444455555"/>
                    </valueIdentifier>
                </extension>
                <extension url="http://hl7.org/fhir/us/bfdr/StructureDefinition/Extension-date-filed-by-registrar">
                    <valueDateTime value="2019-02-12"/>
                </extension>
                <identifier>
                    <value value="a03eab8c-11e8-4d0c-ad2a-b385395e27de"/>
                </identifier>
                <status value="final"/>
                <type>
                    <coding>
                        <system value="http://loinc.org"/>
                        <code value="68998-4"/>
                        <display value="U.S. standard certificate of live birth - 2003 revision"/>
                    </coding>
                </type>
                <subject>
                    <reference value="Patient/patient-child-babyg-quinn"/>
                    <display value="Patient - Child (Baby G Quinn)"/>
                </subject>
                <encounter>
                    <extension url="http://hl7.org/fhir/us/bfdr/StructureDefinition/Extension-encounter-maternity-reference">
                        <valueReference>
                            <reference value="Encounter/encounter-maternity-jada-ann-quinn"/>
                        </valueReference>
                    </extension>
                    <reference value="Encounter/encounter-birth-babyg-quinn"/>
                    <display value="Encounter - Birth (Baby G Quinn)"/>
                </encounter>
                <date value="2019-02-12"/>
                <author>
                    <reference value="Practitioner/practitioner-vital-records-avery-jones"/>
                    <display value="Practitioner - Vital Records (Dr. Avery Jones, MD)"/>
                </author>
                <title value="Provider supplied live birth report Document"/>
                <section>
                    <title value="Mother (prenatal) Section on the Live Birth Certificate"/>
                    <code>
                        <coding>
                            <system value="http://loinc.org"/>
                            <code value="57073-9"/>
                            <display value="Prenatal records"/>
                        </coding>
                    </code>
                    <focus>
                        <reference value="Patient/patient-mother-jada-ann-quinn"/>
                        <display value="Patient - Mother (Jada Ann Quinn)"/>
                    </focus>
                    <entry>
                        <reference value="Observation/observation-planned-to-deliver-at-home-babyg-quinn"/>
                        <display value="Observation - Planned to Deliver at Home (Jada Ann Quinn)"/>
                    </entry>
                    <entry>
                        <reference value="Observation/observation-date-of-first-prenatal-care-visit-jada-ann-quinn"/>
                        <display value="Observation - Date of First Prenantal Care Visit (Jada Ann Quinn)"/>
                    </entry>
                    <entry>
                        <reference value="Observation/observation-number-prenatal-visits-jada-ann-quinn"/>
                        <display value="Observation - Number Prenatal Visits (Jada Ann Quinn)"/>
                    </entry>
                    <entry>
                        <reference value="Observation/observation-last-menstrual-period-jada-ann-quinn"/>
                        <display value="Observation - Last Menstrual Period (Jada Ann Quinn)"/>
                    </entry>
                    <entry>
                        <reference value="Observation/observation-number-births-now-living-jada-ann-quinn"/>
                        <display value="Observation - Number Births Now Living (Jada Ann Quinn)"/>
                    </entry>
                    <entry>
                        <reference value="Observation/observation-number-births-now-dead-jada-ann-quinn"/>
                        <display value="Observation - Number Births Now Dead (Jada Ann Quinn)"/>
                    </entry>
                    <entry>
                        <reference value="Observation/observation-date-of-last-live-birth-jada-ann-quinn"/>
                        <display value="Observation - Date of Last Live Birth (Jada Ann Quinn)"/>
                    </entry>
                    <entry>
                        <reference value="Observation/observation-number-other-pregnancy-outcomes-jada-ann-quinn"/>
                        <display value="Observation - Number Other Pregnancy Outcomes (Jada Ann Quinn)"/>
                    </entry>
                    <entry>
                        <reference value="Observation/observation-date-of-last-other-pregnancy-outcome-jada-ann-quinn"/>
                        <display value="Observation - Date of Last Other Pregnancy Outcome (Jada Ann Quinn)"/>
                    </entry>
                    <entry>
                        <reference value="Coverage/coverage-principal-payer-for-delivery-jada-ann-quinn"/>
                        <display value="Coverage - Principal Payer for Delivery (Jada Ann Quinn)"/>
                    </entry>
                    <entry>
                        <reference value="Observation/observation-mother-delivery-weight-jada-ann-quinn"/>
                        <display value="Observation - Mother Delivery Weight (Jada Ann Quinn)"/>
                    </entry>
                    <entry>
                        <reference value="Observation/observation-mother-height-jada-ann-quinn"/>
                        <display value="Observation - Observation - Mother Height (Jada Ann Quinn)"/>
                    </entry>
                    <entry>
                        <reference value="Observation/observation-mother-prepregnancy-weight-jada-ann-quinn"/>
                        <display value="Observation - Mother Prepregnancy Weight (Jada Ann Quinn)"/>
                    </entry>
                    <entry>
                        <reference value="Observation/observation-mother-received-wic-food-jada-ann-quinn"/>
                        <display value="Observation - Mother Received WIC Food (Jada Ann Quinn)"/>
                    </entry>
                    <entry>
                        <reference value="Observation/observation-cig-smoking-pregnancy-1-jada-ann-quinn"/>
                        <display value="Observation - Cigarette Smoking Before/During Pregnancy (3 months prior: Jada Ann Quinn)"/>
                    </entry>
                    <entry>
                        <reference value="Observation/observation-cig-smoking-pregnancy-2-jada-ann-quinn"/>
                        <display value="Observation - Cigarette Smoking Before/During Pregnancy (first 3 months: Jada Ann Quinn)"/>
                    </entry>
                    <entry>
                        <reference value="Observation/observation-cig-smoking-pregnancy-3-jada-ann-quinn"/>
                        <display value="Observation - Cigarette Smoking Before/During Pregnancy (second 3 months: Jada Ann Quinn)"/>
                    </entry>
                    <entry>
                        <reference value="Observation/observation-cig-smoking-pregnancy-4-jada-ann-quinn"/>
                        <display value="Observation - Cigarette Smoking Before/During Pregnancy (last 3 months: Jada Ann Quinn)"/>
                    </entry>
                </section>
                <section>
                    <title value="Medical Health Information Section"/>
                    <code>
                        <coding>
                            <system value="http://loinc.org"/>
                            <code value="55752-0"/>
                            <display value="Clinical information"/>
                        </coding>
                    </code>
                    <focus>
                        <reference value="Patient/patient-mother-jada-ann-quinn"/>
                        <display value="Patient - Mother (Jada Ann Quinn)"/>
                    </focus>
                    <entry>
                        <reference value="Condition/condition-prepregnancy-diabetes-jada-ann-quinn"/>
                        <display value="Condition - Prepregnancy Diabetes - Jada Ann Quinn"/>
                    </entry>
                    <entry>
                        <reference value="Condition/condition-gestational-hypertension-jada-ann-quinn"/>
                        <display value="Observation - Pregnancy Risk Factor (Jada Ann Quinn: Pregnancy-induced hypertension)"/>
                    </entry>
                    <entry>
                        <reference value="Observation/observation-number-previous-cesareans-jada-ann-quinn"/>
                        <display value="Observation - Number Previous Cesareans (Jada Ann Quinn)"/>
                    </entry>
                    <entry>
                        <reference value="Condition/condition-infection-present-during-pregnancy-jada-ann-quinn"/>
                        <display value="Condition - Infection Present During Pregnancy (Jada Ann Quinn)"/>
                    </entry>
                    <entry>
                        <reference value="Procedure/procedure-obstetric-procedure-jada-ann-quinn"/>
                        <display value="Procedure - Obstetric Procedure (Jada Ann Quinn)"/>
                    </entry>
                    <entry>
                        <reference value="Condition/condition-chorioamnionitis-jada-ann-quinn"/>
                        <display value="Condition - Characteristic of Labor and Delivery (Jada Ann Quinn: Chorioamnionitis)"/>
                    </entry>
                    <entry>
                        <reference value="Procedure/procedure-induction-of-labor-jada-ann-quinn"/>
                        <display value="Procedure - Characteristic of Labor and Delivery (Jada Ann Quinn: Induction of Labor)"/>
                    </entry>
                    <entry>
                        <reference value="Observation/observation-fetal-presentation-babyg-quinn"/>
                        <display value="Observation - Fetal Presentation (Baby G Quinn)"/>
                    </entry>
                    <entry>
                        <reference value="Procedure/procedure-final-route-method-delivery-babyg-quinn"/>
                        <display value="Procedure - Final Route and Method of Delivery (Baby G Quinn)"/>
                    </entry>
                    <entry>
                        <reference value="Condition/condition-ruptured-uterus-jada-ann-quinn"/>
                        <display value="Condition - Maternal Morbidity - Ruptured Uterus (Jada Ann Quinn)"/>
                    </entry>
                </section>
                <section>
                    <title value="Newborn section on the Live Birth Certificate"/>
                    <code>
                        <coding>
                            <system value="http://loinc.org"/>
                            <code value="57075-4"/>
                            <display value="Newborn delivery information"/>
                        </coding>
                    </code>
                    <entry>
                        <reference value="Observation/observation-birth-weight-babyg-quinn"/>
                        <display value="Observation - Birth Weight (Baby G Quinn)"/>
                    </entry>
                    <entry>
                        <reference value="Observation/observation-gestational-age-at-delivery-babyg-quinn"/>
                        <display value="Observation - Gestational Age at Delivery (Baby G Quinn)"/>
                    </entry>
                    <entry>
                        <reference value="Observation/observation-apgar-score-babyg-quinn-1-min"/>
                        <display value="Observation - Apgar Score (BabyG Quinn: 1 min)"/>
                    </entry>
                    <entry>
                        <reference value="Observation/observation-apgar-score-babyg-quinn-5-min"/>
                        <display value="Observation - Apgar Score (BabyG Quinn: 5 min)"/>
                    </entry>
                    <entry>
                        <reference value="Condition/condition-congenital-anomaly-of-newborn-babyg-quinn"/>
                        <display value="Condition - Congenital Anomaly of Newborn (BabyG Quinn) 1"/>
                    </entry>
                    <entry>
                        <reference value="Condition/condition-congenital-anomaly-of-newborn-babyg-quinn-2"/>
                        <display value="Condition - Congenital Anomaly of Newborn (Baby G Quinn) 2"/>
                    </entry>
                    <entry>
                        <reference value="Observation/observation-infant-living-babyg-quinn"/>
                        <display value="Observation - Infant Living (Baby G Quinn)"/>
                    </entry>
                    <entry>
                        <reference value="Observation/observation-infant-breastfed-at-discharge-babyg-quinn"/>
                        <display value="Observation - Infant Breastfed at Discharge (Baby G Quinn)"/>
                    </entry>
                </section>
                <section>
                    <title value="Mother's Information Section"/>
                    <code>
                        <coding>
                            <system value="http://loinc.org"/>
                            <code value="92014-0"/>
                            <display value="Mother's administrative information"/>
                        </coding>
                    </code>
                    <focus>
                        <reference value="Patient/patient-mother-jada-ann-quinn"/>
                        <display value="Patient - Mother (Jada Ann Quinn)"/>
                    </focus>
                    <entry>
                        <reference value="Observation/observation-mother-married-during-pregnancy-jada-ann-quinn"/>
                        <display value="Observation - Mother Married During Pregnancy (Jada Ann Quinn)"/>
                    </entry>
                    <entry>
                        <reference value="Observation/observation-parent-education-level-jada-ann-quinn"/>
                        <display value="Observation - Parent Education Level (Jada Ann Quinn)"/>
                    </entry>
                    <entry>
                        <reference value="Observation/observation-ssn-requested-for-child-babyg-quinn"/>
                        <display value="Observation - SSN Requested for Child (Jada Ann Quinn)"/>
                    </entry>
                </section>
                <section>
                    <title value="Father's Information Section"/>
                    <code>
                        <coding>
                            <system value="http://loinc.org"/>
                            <code value="92013-2"/>
                            <display value="Father's Administrative Information"/>
                        </coding>
                    </code>
                    <focus>
                        <reference value="RelatedPerson/relatedperson-father-natural-james-brandon-quinn"/>
                        <display value="RelatedPerson - Father (James Brandon Quinn)"/>
                    </focus>
                    <entry>
                        <reference value="Observation/observation-paternity-acknowledgement-signed-james-quinn"/>
                        <display value="Observation - Paternity Acknowledgement Signed (James Brandon Quinn)"/>
                    </entry>
                    <entry>
                        <reference value="Observation/observation-parent-education-level-james-quinn"/>
                        <display value="Observation - Parent Education Level (James Brandon Quinn)"/>
                    </entry>
                </section>
                <section>
                    <title value="Mother's QuestionnaireResponse Section"/>
                    <code>
                        <coding>
                            <system value="http://loinc.org"/>
                            <code value="74465-6"/>
                            <display value="Questionnaire response Document"/>
                        </coding>
                    </code>
                    <focus>
                        <reference value="Patient/patient-mother-jada-ann-quinn"/>
                        <display value="Patient - Mother (Jada Ann Quinn)"/>
                    </focus>
                    <entry>
                        <reference value="QuestionnaireResponse/QuestionnaireResponse-mothers-live-birth-jada-quinn"/>
                        <display value="QuestionnaireResponse - Mother's Worksheet for Live Birth Certificate"/>
                    </entry>
                </section>
            </Composition>
        </resource>
    </entry>
    <entry>
        <fullUrl value="http://example.org/fhir/Patient/patient-child-babyg-quinn"/>
        <resource>
            <Patient>
                <id value="patient-child-babyg-quinn"/>
                <meta>
                    <profile value="http://hl7.org/fhir/us/vr-common-library/StructureDefinition/Patient-child-vr"/>
                </meta>
                <extension url="http://hl7.org/fhir/us/core/StructureDefinition/us-core-race">
                    <extension url="ombCategory">
                        <valueCoding>
                            <system value="urn:oid:2.16.840.1.113883.6.238"/>
                            <code value="2106-3"/>
                            <display value="White"/>
                        </valueCoding>
                    </extension>
                    <extension url="text">
                        <valueString value="White"/>
                    </extension>
                </extension>
                <extension url="http://hl7.org/fhir/us/core/StructureDefinition/us-core-ethnicity">
                    <extension url="ombCategory">
                        <valueCoding>
                            <system value="urn:oid:2.16.840.1.113883.6.238"/>
                            <code value="2186-5"/>
                            <display value="Not Hispanic or Latino"/>
                        </valueCoding>
                    </extension>
                    <extension url="text">
                        <valueString value="Not Hispanic or Latino"/>
                    </extension>
                </extension>
                <extension url="http://hl7.org/fhir/us/core/StructureDefinition/us-core-birthsex">
                    <valueCode value="F"/>
                </extension>
                <extension url="http://hl7.org/fhir/StructureDefinition/patient-birthPlace">
                    <valueAddress>
                        <city value="Salt Lake City"/>
                        <district value="Salt Lake"/>
                        <state value="UT"/>
                    </valueAddress>
                </extension>
                <identifier>
                    <use value="usual"/>
                    <type>
                        <coding>
                            <system value="http://terminology.hl7.org/CodeSystem/v2-0203"/>
                            <code value="MR"/>
                            <display value="Medical Record Number"/>
                        </coding>
                    </type>
                    <system value="http://hospital.smarthealthit.org"/>
                    <value value="9932702"/>
                </identifier>
                <name>
                    <family value="Quinn"/>
                    <given value="Baby"/>
                    <given value="G"/>
                </name>
                <gender value="female"/>
                <birthDate value="2019-02-12">
                    <extension url="http://hl7.org/fhir/StructureDefinition/patient-birthTime">
                        <valueDateTime value="2019-02-12T13:00:00-07:00"/>
                    </extension>
                </birthDate>
            </Patient>
        </resource>
    </entry>
    <entry>
        <fullUrl value="http://example.org/fhir/Encounter/encounter-birth-babyg-quinn"/>
        <resource>
            <Encounter>
                <id value="encounter-birth-babyg-quinn"/>
                <meta>
                    <profile value="http://hl7.org/fhir/us/bfdr/StructureDefinition/Encounter-birth"/>
                </meta>
                <identifier>
                    <system value="http://hospital.smarthealthit.org"/>
                    <value value="9937012"/>
                </identifier>
                <status value="finished"/>
                <class>
                    <system value="http://terminology.hl7.org/CodeSystem/v3-ActCode"/>
                    <code value="IMP"/>
                    <display value="inpatient encounter"/>
                </class>
                <type>
                    <coding>
                        <system value="http://www.ama-assn.org/go/cpt"/>
                        <code value="99234"/>
                    </coding>
                    <text value="Under Observation or Inpatient Care Services (Including Admission and Discharge Services)"/>
                </type>
                <subject>
                    <reference value="Patient/patient-child-babyg-quinn"/>
                    <display value="BabyG Quinn"/>
                </subject>
                <participant>
                    <type>
                        <coding>
                            <system value="http://loinc.org"/>
                            <code value="87287-9"/>
                            <display value="Birth certifier [Extended Identifier]"/>
                        </coding>
                    </type>
                    <period>
                        <start value="2019-02-12T13:30:00-07:00"/>
                    </period>
                    <individual>
                        <reference value="Practitioner/practitioner-vital-records-avery-jones"/>
                        <display value="Practitioner - Vital Records (Avery Jones, MD)"/>
                    </individual>
                </participant>
                <participant>
                    <type>
                        <coding>
                            <system value="http://loinc.org"/>
                            <code value="87286-1"/>
                            <display value="Birth attendant [Extended Identifier]"/>
                        </coding>
                    </type>
                    <individual>
                        <reference value="Practitioner/practitioner-vital-records-avery-jones"/>
                        <display value="Practitioner - Vital Records (Avery Jones, MD)"/>
                    </individual>
                </participant>
                <period>
                    <start value="2019-02-12T13:00:00-07:00"/>
                    <end value="2019-02-15T10:00:00-07:00"/>
                </period>
                <hospitalization>
                    <destination>
                        <reference value="Location/location-east-hospital"/>
                        <display value="East Hospital Location"/>
                    </destination>
                    <dischargeDisposition>
                        <coding>
                            <system value="http://terminology.hl7.org/CodeSystem/discharge-disposition"/>
                            <code value="other-hcf"/>
                            <display value="Other healthcare facility"/>
                        </coding>
                        <text value="The patient was transferred to another healthcare facility."/>
                    </dischargeDisposition>
                </hospitalization>
                <location>
                    <location>
                        <reference value="Location/location-south-hospital"/>
                        <display value="Location - US Core Location (South Hospital)"/>
                    </location>
                    <physicalType>
                        <coding>
                            <system value="http://snomed.info/sct"/>
                            <code value="22232009"/>
                            <display value="Hospital"/>
                        </coding>
                    </physicalType>
                </location>
                <partOf>
                    <reference value="Encounter/encounter-maternity-jada-ann-quinn"/>
                    <display value="Maternity Encounter - Jada Ann Quinn"/>
                </partOf>
            </Encounter>
        </resource>
    </entry>
    <entry>
        <fullUrl value="http://example.org/fhir/Encounter/encounter-maternity-jada-ann-quinn"/>
        <resource>
            <Encounter>
                <id value="encounter-maternity-jada-ann-quinn"/>
                <meta>
                    <profile value="http://hl7.org/fhir/us/bfdr/StructureDefinition/Encounter-maternity"/>
                </meta>
                <identifier>
                    <system value="http://hospital.smarthealthit.org"/>
                    <value value="9937012"/>
                </identifier>
                <status value="finished"/>
                <class>
                    <system value="http://terminology.hl7.org/CodeSystem/v3-ActCode"/>
                    <code value="IMP"/>
                    <display value="inpatient encounter"/>
                </class>
                <type>
                    <coding>
                        <system value="http://www.ama-assn.org/go/cpt"/>
                        <code value="99234"/>
                    </coding>
                    <text value="Under Observation or Inpatient Care Services (Including Admission and Discharge Services)"/>
                </type>
                <subject>
                    <reference value="Patient/patient-mother-jada-ann-quinn"/>
                    <display value="Patient - Mother (Jada Ann Quinn)"/>
                </subject>
                <participant>
                    <type>
                        <coding>
                            <system value="http://loinc.org"/>
                            <code value="87286-1"/>
                            <display value="Birth attendant [Extended Identifier]"/>
                        </coding>
                    </type>
                    <individual>
                        <reference value="Practitioner/practitioner-vital-records-avery-jones"/>
                        <display value="Practitioner - Vital Records (Avery Jones, MD)"/>
                    </individual>
                </participant>
                <period>
                    <start value="2019-02-11T10:00:00-07:00"/>
                    <end value="2019-02-15T10:00:00-07:00"/>
                </period>
                <hospitalization>
                    <origin>
                        <reference value="Location/location-north-hospital"/>
                        <display value="Location - US Core Location (North Hospital)"/>
                    </origin>
                    <admitSource>
                        <coding>
                            <system value="http://terminology.hl7.org/CodeSystem/admit-source"/>
                            <code value="hosp-trans"/>
                            <display value="Transferred from other hospital"/>
                        </coding>
                        <text value="The Patient has been transferred from another hospital for this encounter."/>
                    </admitSource>
                </hospitalization>
                <location>
                    <location>
                        <reference value="Location/location-south-hospital"/>
                        <display value="Location - US Core Location (South Hospital)"/>
                    </location>
                    <physicalType>
                        <coding>
                            <system value="http://snomed.info/sct"/>
                            <code value="22232009"/>
                            <display value="Hospital"/>
                        </coding>
                    </physicalType>
                </location>
                <serviceProvider>
                    <reference value="Organization/organization-south-hospital"/>
                    <display value="Organization - US Core Organization (South Hospital Organization)"/>
                </serviceProvider>
            </Encounter>
        </resource>
    </entry>
    <entry>
        <fullUrl value="http://example.org/fhir/Practitioner/practitioner-vital-records-avery-jones"/>
        <resource>
            <Practitioner>
                <id value="practitioner-vital-records-avery-jones"/>
                <meta>
                    <profile value="http://hl7.org/fhir/us/vr-common-library/StructureDefinition/Practitioner-vr"/>
                </meta>
                <identifier>
                    <system value="http://hl7.org/fhir/sid/us-npi"/>
                    <value value="112247003"/>
                </identifier>
                <name>
                    <family value="Jones"/>
                    <given value="Avery"/>
                    <suffix value="M.D."/>
                </name>
                <qualification>
                    <code>
                        <coding>
                            <system value="http://snomed.info/sct"/>
                            <code value="112247003"/>
                            <display value="Medical doctor"/>
                        </coding>
                    </code>
                </qualification>
            </Practitioner>
        </resource>
    </entry>
    <entry>
        <fullUrl value="http://example.org/fhir/Patient/patient-mother-jada-ann-quinn"/>
        <resource>
            <Patient>
                <id value="patient-mother-jada-ann-quinn"/>
                <meta>
                    <profile value="http://hl7.org/fhir/us/vr-common-library/StructureDefinition/Patient-mother-vr"/>
                </meta>
                <extension url="http://hl7.org/fhir/us/core/StructureDefinition/us-core-race">
                    <extension url="ombCategory">
                        <valueCoding>
                            <system value="urn:oid:2.16.840.1.113883.6.238"/>
                            <code value="2106-3"/>
                            <display value="White"/>
                        </valueCoding>
                    </extension>
                    <extension url="ombCategory">
                        <valueCoding>
                            <system value="urn:oid:2.16.840.1.113883.6.238"/>
                            <code value="1002-5"/>
                            <display value="American Indian or Alaska Native"/>
                        </valueCoding>
                    </extension>
                    <extension url="text">
                        <valueString value="White, American Indian or Alaska Native"/>
                    </extension>
                </extension>
                <extension url="http://hl7.org/fhir/us/core/StructureDefinition/us-core-ethnicity">
                    <extension url="ombCategory">
                        <valueCoding>
                            <system value="urn:oid:2.16.840.1.113883.6.238"/>
                            <code value="2186-5"/>
                            <display value="Not Hispanic or Latino"/>
                        </valueCoding>
                    </extension>
                    <extension url="text">
                        <valueString value="Not Hispanic or Latino"/>
                    </extension>
                </extension>
                <extension url="http://hl7.org/fhir/us/core/StructureDefinition/us-core-birthsex">
                    <valueCode value="F"/>
                </extension>
                <extension url="http://hl7.org/fhir/StructureDefinition/patient-birthPlace">
                    <valueAddress>
                        <state value="UT"/>
                    </valueAddress>
                </extension>
                <identifier>
                    <use value="usual"/>
                    <type>
                        <coding>
                            <system value="http://terminology.hl7.org/CodeSystem/v2-0203"/>
                            <code value="SS"/>
                            <display value="Social Security number"/>
                        </coding>
                    </type>
                    <system value="http://hl7.org/fhir/sid/us-ssn"/>
                    <value value="132225986"/>
                </identifier>
                <identifier>
                    <use value="usual"/>
                    <type>
                        <coding>
                            <system value="http://terminology.hl7.org/CodeSystem/v2-0203"/>
                            <code value="MR"/>
                            <display value="Medical Record Number"/>
                        </coding>
                    </type>
                    <system value="http://hospital.smarthealthit.org"/>
                    <value value="1032702"/>
                </identifier>
                <name>
                    <use value="official"/>
                    <family value="Quinn"/>
                    <given value="Jada"/>
                    <given value="Ann"/>
                </name>
                <name>
                    <use value="maiden"/>
                    <family value="King"/>
                    <given value="Jada"/>
                    <given value="Ann"/>
                </name>
                <telecom>
                    <system value="phone"/>
                    <value value="1-(404)555-1212"/>
                    <use value="home"/>
                </telecom>
                <telecom>
                    <system value="email"/>
                    <value value="jadaann.quinn@example.com"/>
                </telecom>
                <gender value="female"/>
                <birthDate value="1985-01-15"/>
                <address>
                    <extension url="http://hl7.org/fhir/us/vr-common-library/StructureDefinition/Extension-within-city-limits-indicator-vr">
                        <valueCoding>
                            <system value="http://terminology.hl7.org/CodeSystem/v2-0532"/>
                            <code value="Y"/>
                            <display value="Yes"/>
                        </valueCoding>
                    </extension>
                    <use value="home"/>
                    <line value="1875 West Morton Avenue"/>
                    <city value="Salt Lake City"/>
                    <district value="Salt Lake"/>
                    <state value="UT"/>
                    <postalCode value="84116"/>
                    <country value="US"/>
                </address>
                <address>
                    <use value="billing"/>
                    <line value="1848 South 1300 East"/>
                    <city value="Salt Lake City"/>
                    <state value="UT"/>
                    <postalCode value="84401"/>
                    <country value="US"/>
                </address>
            </Patient>
        </resource>
    </entry>
    <entry>
        <fullUrl value="http://example.org/fhir/Observation/observation-planned-to-deliver-at-home-babyg-quinn"/>
        <resource>
            <Observation>
                <id value="observation-planned-to-deliver-at-home-babyg-quinn"/>
                <meta>
                    <profile value="http://hl7.org/fhir/us/bfdr/StructureDefinition/Observation-planned-to-deliver-at-home"/>
                </meta>
                <status value="final"/>
                <code>
                    <coding>
                        <system value="http://loinc.org"/>
                        <code value="73765-0"/>
                        <display value="Mother Planned to deliver at home [US Standard Certificate of Live Birth]"/>
                    </coding>
                    <text value="Planned to deliver at home?"/>
                </code>
                <subject>
                    <reference value="Patient/patient-child-babyg-quinn"/>
                    <display value="BabyG Quinn"/>
                </subject>
                <focus>
                    <reference value="Patient/patient-mother-jada-ann-quinn"/>
                    <display value="Patient - Mother (Jada Ann Quinn)"/>
                </focus>
                <issued value="2019-02-11T20:02:00-07:00"/>
                <valueBoolean value="true"/>
            </Observation>
        </resource>
    </entry>
    <entry>
        <fullUrl value="http://example.org/fhir/Observation/observation-date-of-first-prenatal-care-visit-jada-ann-quinn"/>
        <resource>
            <Observation>
                <id value="observation-date-of-first-prenatal-care-visit-jada-ann-quinn"/>
                <meta>
                    <profile value="http://hl7.org/fhir/us/bfdr/StructureDefinition/Observation-date-of-first-prenatal-care-visit"/>
                </meta>
                <status value="final"/>
                <code>
                    <coding>
                        <system value="http://loinc.org"/>
                        <code value="69044-6"/>
                        <display value="Date first prenatal visit"/>
                    </coding>
                    <text value="Date of first prenatal care visit"/>
                </code>
                <subject>
                    <reference value="Patient/patient-child-babyg-quinn"/>
                    <display value="BabyG Quinn"/>
                </subject>
                <focus>
                    <reference value="Patient/patient-mother-jada-ann-quinn"/>
                    <display value="Patient - Mother (Jada Ann Quinn)"/>
                </focus>
                <valueDateTime value="2018-07-20"/>
            </Observation>
        </resource>
    </entry>
    <entry>
        <fullUrl value="http://example.org/fhir/Observation/observation-number-prenatal-visits-jada-ann-quinn"/>
        <resource>
            <Observation>
                <id value="observation-number-prenatal-visits-jada-ann-quinn"/>
                <meta>
                    <profile value="http://hl7.org/fhir/us/vr-common-library/StructureDefinition/Observation-number-prenatal-visits-vr"/>
                </meta>
                <status value="final"/>
                <code>
                    <coding>
                        <system value="http://loinc.org"/>
                        <code value="68493-6"/>
                        <display value="Prenatal visits for this pregnancy #"/>
                    </coding>
                    <text value="Prenatal visits for this pregnancy #"/>
                </code>
                <subject>
                    <reference value="Patient/patient-child-babyg-quinn"/>
                    <display value="BabyG Quinn"/>
                </subject>
                <focus>
                    <reference value="Patient/patient-mother-jada-ann-quinn"/>
                    <display value="Patient - Mother (Jada Ann Quinn)"/>
                </focus>
                <valueInteger value="8"/>
            </Observation>
        </resource>
    </entry>
    <entry>
        <fullUrl value="http://example.org/fhir/Observation/observation-last-menstrual-period-jada-ann-quinn"/>
        <resource>
            <Observation>
                <id value="observation-last-menstrual-period-jada-ann-quinn"/>
                <meta>
                    <profile value="http://hl7.org/fhir/us/vr-common-library/StructureDefinition/Observation-last-menstrual-period-vr"/>
                </meta>
                <status value="final"/>
                <code>
                    <coding>
                        <system value="http://loinc.org"/>
                        <code value="8665-2"/>
                        <display value="Last menstrual period start date"/>
                    </coding>
                    <text value="Last menstrual period start date"/>
                </code>
                <subject>
                    <reference value="Patient/patient-mother-jada-ann-quinn"/>
                    <display value="Patient - Mother (Jada Ann Quinn)"/>
                </subject>
                <valueDateTime value="2018-06-05"/>
            </Observation>
        </resource>
    </entry>
    <entry>
        <fullUrl value="http://example.org/fhir/Observation/observation-number-births-now-living-jada-ann-quinn"/>
        <resource>
            <Observation>
                <id value="observation-number-births-now-living-jada-ann-quinn"/>
                <meta>
                    <profile value="http://hl7.org/fhir/us/vr-common-library/StructureDefinition/Observation-number-births-now-living-vr"/>
                </meta>
                <status value="final"/>
                <code>
                    <coding>
                        <system value="http://loinc.org"/>
                        <code value="11638-4"/>
                        <display value="[#] Births.still living"/>
                    </coding>
                    <text value="[#] Births.still living"/>
                </code>
                <subject>
                    <reference value="Patient/patient-mother-jada-ann-quinn"/>
                    <display value="Patient - Mother (Jada Ann Quinn)"/>
                </subject>
                <valueInteger value="1"/>
            </Observation>
        </resource>
    </entry>
    <entry>
        <fullUrl value="http://example.org/fhir/Observation/observation-number-births-now-dead-jada-ann-quinn"/>
        <resource>
            <Observation>
                <id value="observation-number-births-now-dead-jada-ann-quinn"/>
                <meta>
                    <profile value="http://hl7.org/fhir/us/vr-common-library/StructureDefinition/Observation-number-births-now-dead-vr"/>
                </meta>
                <status value="final"/>
                <code>
                    <coding>
                        <system value="http://loinc.org"/>
                        <code value="68496-9"/>
                        <display value="Previous live births now dead #"/>
                    </coding>
                    <text value="Previous live births now dead #"/>
                </code>
                <subject>
                    <reference value="Patient/patient-mother-jada-ann-quinn"/>
                    <display value="Patient - Mother (Jada Ann Quinn)"/>
                </subject>
                <valueInteger value="0"/>
            </Observation>
        </resource>
    </entry>
    <entry>
        <fullUrl value="http://example.org/fhir/Observation/observation-date-of-last-live-birth-jada-ann-quinn"/>
        <resource>
            <Observation>
                <id value="observation-date-of-last-live-birth-jada-ann-quinn"/>
                <meta>
                    <profile value="http://hl7.org/fhir/us/bfdr/StructureDefinition/Observation-date-of-last-live-birth"/>
                </meta>
                <status value="final"/>
                <code>
                    <coding>
                        <system value="http://loinc.org"/>
                        <code value="68499-3"/>
                        <display value="Date last live birth"/>
                    </coding>
                    <text value="Date of last live birth"/>
                </code>
                <subject>
                    <reference value="Patient/patient-child-babyg-quinn"/>
                    <display value="BabyG Quinn"/>
                </subject>
                <focus>
                    <reference value="Patient/patient-mother-jada-ann-quinn"/>
                    <display value="Patient - Mother (Jada Ann Quinn)"/>
                </focus>
                <valueDateTime value="2014-11-20"/>
            </Observation>
        </resource>
    </entry>
    <entry>
        <fullUrl value="http://example.org/fhir/Observation/observation-number-other-pregnancy-outcomes-jada-ann-quinn"/>
        <resource>
            <Observation>
                <id value="observation-number-other-pregnancy-outcomes-jada-ann-quinn"/>
                <meta>
                    <profile value="http://hl7.org/fhir/us/vr-common-library/StructureDefinition/Observation-number-other-pregnancy-outcomes-vr"/>
                </meta>
                <status value="final"/>
                <code>
                    <coding>
                        <system value="http://loinc.org"/>
                        <code value="69043-8"/>
                        <display value="Other pregnancy outcomes #"/>
                    </coding>
                    <text value="Other pregnancy outcomes #"/>
                </code>
                <subject>
                    <reference value="Patient/patient-mother-jada-ann-quinn"/>
                    <display value="Patient - Mother (Jada Ann Quinn)"/>
                </subject>
                <valueInteger value="0"/>
            </Observation>
        </resource>
    </entry>
    <entry>
        <fullUrl value="http://example.org/fhir/Observation/observation-date-of-last-other-pregnancy-outcome-jada-ann-quinn"/>
        <resource>
            <Observation>
                <id value="observation-date-of-last-other-pregnancy-outcome-jada-ann-quinn"/>
                <meta>
                    <profile value="http://hl7.org/fhir/us/bfdr/StructureDefinition/Observation-date-of-last-other-pregnancy-outcome"/>
                </meta>
                <status value="final"/>
                <code>
                    <coding>
                        <system value="http://loinc.org"/>
                        <code value="68500-8"/>
                        <display value="Date last other pregnancy outcome"/>
                    </coding>
                    <text value="Date of last other pregnancy outcome"/>
                </code>
                <subject>
                    <reference value="Patient/patient-child-babyg-quinn"/>
                    <display value="BabyG Quinn"/>
                </subject>
                <focus>
                    <reference value="Patient/patient-mother-jada-ann-quinn"/>
                    <display value="Patient - Mother (Jada Ann Quinn)"/>
                </focus>
                <valueDateTime value="2015-05"/>
            </Observation>
        </resource>
    </entry>
    <entry>
        <fullUrl value="http://example.org/fhir/Coverage/coverage-principal-payer-for-delivery-jada-ann-quinn"/>
        <resource>
            <Coverage>
                <id value="coverage-principal-payer-for-delivery-jada-ann-quinn"/>
                <meta>
                    <profile value="http://hl7.org/fhir/us/bfdr/StructureDefinition/Coverage-principal-payer-for-delivery"/>
                </meta>
                <status value="active"/>
                <type>
                    <coding>
                        <system value="https://nahdo.org/sopt"/>
                        <code value="5"/>
                        <display value="PRIVATE HEALTH INSURANCE"/>
                    </coding>
                    <text value="Private Health Insurance"/>
                </type>
                <beneficiary>
                    <reference value="Patient/patient-mother-jada-ann-quinn"/>
                    <display value="Patient - Mother (Jada Ann Quinn)"/>
                </beneficiary>
                <payor>
                    <extension url="http://hl7.org/fhir/StructureDefinition/data-absent-reason">
                        <valueCode value="not-asked"/>
                    </extension>
                    <display value="Not asked"/>
                </payor>
            </Coverage>
        </resource>
    </entry>
    <entry>
        <fullUrl value="http://example.org/fhir/Observation/observation-mother-delivery-weight-jada-ann-quinn"/>
        <resource>
            <Observation>
                <id value="observation-mother-delivery-weight-jada-ann-quinn"/>
                <meta>
                    <profile value="http://hl7.org/fhir/us/vr-common-library/StructureDefinition/Observation-mother-delivery-weight-vr"/>
                </meta>
                <status value="final"/>
                <category>
                    <coding>
                        <system value="http://terminology.hl7.org/CodeSystem/observation-category"/>
                        <code value="vital-signs"/>
                        <display value="Vital Signs"/>
                    </coding>
                    <text value="Vital Signs"/>
                </category>
                <code>
                    <coding>
                        <system value="http://loinc.org"/>
                        <code value="69461-2"/>
                        <display value="Mother's body weight --at delivery"/>
                    </coding>
                </code>
                <subject>
                    <reference value="Patient/patient-mother-jada-ann-quinn"/>
                    <display value="Patient - Mother (Jada Ann Quinn)"/>
                </subject>
                <effectiveDateTime value="2019-02-12"/>
                <valueQuantity>
                    <value value="175"/>
                    <system value="http://unitsofmeasure.org"/>
                    <code value="[lb_av]"/>
                </valueQuantity>
            </Observation>
        </resource>
    </entry>
    <entry>
        <fullUrl value="http://example.org/fhir/Observation/observation-mother-height-jada-ann-quinn"/>
        <resource>
            <Observation>
                <id value="observation-mother-height-jada-ann-quinn"/>
                <meta>
                    <profile value="http://hl7.org/fhir/us/vr-common-library/StructureDefinition/Observation-mother-height-vr"/>
                </meta>
                <status value="final"/>
                <category>
                    <coding>
                        <system value="http://terminology.hl7.org/CodeSystem/observation-category"/>
                        <code value="vital-signs"/>
                        <display value="Vital Signs"/>
                    </coding>
                    <text value="Vital Signs"/>
                </category>
                <code>
                    <coding>
                        <system value="http://loinc.org"/>
                        <code value="3137-7"/>
                        <display value="Body height Measured"/>
                    </coding>
                </code>
                <subject>
                    <reference value="Patient/patient-mother-jada-ann-quinn"/>
                    <display value="Patient - Mother (Jada Ann Quinn)"/>
                </subject>
                <effectiveDateTime value="2019-02-10"/>
                <valueQuantity>
                    <value value="67"/>
                    <system value="http://unitsofmeasure.org"/>
                    <code value="[in_i]"/>
                </valueQuantity>
            </Observation>
        </resource>
    </entry>
    <entry>
        <fullUrl value="http://example.org/fhir/Observation/observation-mother-prepregnancy-weight-jada-ann-quinn"/>
        <resource>
            <Observation>
                <id value="observation-mother-prepregnancy-weight-jada-ann-quinn"/>
                <meta>
                    <profile value="http://hl7.org/fhir/us/vr-common-library/StructureDefinition/Observation-mother-prepregnancy-weight-vr"/>
                </meta>
                <status value="final"/>
                <category>
                    <coding>
                        <system value="http://terminology.hl7.org/CodeSystem/observation-category"/>
                        <code value="vital-signs"/>
                        <display value="Vital Signs"/>
                    </coding>
                    <text value="Vital Signs"/>
                </category>
                <code>
                    <coding>
                        <system value="http://loinc.org"/>
                        <code value="56077-1"/>
                        <display value="Body weight --pre current pregnancy"/>
                    </coding>
                </code>
                <subject>
                    <reference value="Patient/patient-mother-jada-ann-quinn"/>
                    <display value="Patient - Mother (Jada Ann Quinn)"/>
                </subject>
                <effectiveDateTime value="2019-06-20"/>
                <valueQuantity>
                    <value value="145"/>
                    <system value="http://unitsofmeasure.org"/>
                    <code value="[lb_av]"/>
                </valueQuantity>
            </Observation>
        </resource>
    </entry>
    <entry>
        <fullUrl value="http://example.org/fhir/Observation/observation-mother-received-wic-food-jada-ann-quinn"/>
        <resource>
            <Observation>
                <id value="observation-mother-received-wic-food-jada-ann-quinn"/>
                <meta>
                    <profile value="http://hl7.org/fhir/us/bfdr/StructureDefinition/Observation-mother-received-wic-food"/>
                </meta>
                <status value="final"/>
                <code>
                    <coding>
                        <system value="http://loinc.org"/>
                        <code value="87303-4"/>
                        <display value="Mother WIC food recipient"/>
                    </coding>
                    <text value="Did mother get WIC food for herself during this pregnancy?"/>
                </code>
                <subject>
                    <reference value="Patient/patient-child-babyg-quinn"/>
                    <display value="BabyG Quinn"/>
                </subject>
                <focus>
                    <reference value="Patient/patient-mother-jada-ann-quinn"/>
                    <display value="Patient - Mother (Jada Ann Quinn)"/>
                </focus>
                <valueCodeableConcept>
                    <coding>
                        <system value="http://terminology.hl7.org/CodeSystem/v2-0532"/>
                        <code value="Y"/>
                        <display value="Yes"/>
                    </coding>
                </valueCodeableConcept>
            </Observation>
        </resource>
    </entry>
    <entry>
        <fullUrl value="http://example.org/fhir/Observation/observation-cig-smoking-pregnancy-1-jada-ann-quinn"/>
        <resource>
            <Observation>
                <id value="observation-cig-smoking-pregnancy-1-jada-ann-quinn"/>
                <meta>
                    <profile value="http://hl7.org/fhir/us/bfdr/StructureDefinition/Observation-cigarette-smoking-before-during-pregnancy"/>
                </meta>
                <status value="final"/>
                <code>
                    <coding>
                        <system value="http://loinc.org"/>
                        <code value="64794-1"/>
                        <display value="In the 3 months before you got pregnant, how many cigarettes did you smoke on an average day [PhenX]"/>
                    </coding>
                    <text value="In the 3 months before you got pregnant, how many cigarettes did you smoke on an average day [PhenX]"/>
                </code>
                <subject>
                    <reference value="Patient/patient-mother-jada-ann-quinn"/>
                    <display value="Patient - Mother (Jada Ann Quinn)"/>
                </subject>
                <focus>
                    <reference value="Patient/patient-child-babyg-quinn"/>
                    <display value="BabyG Quinn"/>
                </focus>
                <valueInteger value="20"/>
            </Observation>
        </resource>
    </entry>
    <entry>
        <fullUrl value="http://example.org/fhir/Observation/observation-cig-smoking-pregnancy-2-jada-ann-quinn"/>
        <resource>
            <Observation>
                <id value="observation-cig-smoking-pregnancy-2-jada-ann-quinn"/>
                <meta>
                    <profile value="http://hl7.org/fhir/us/bfdr/StructureDefinition/Observation-cigarette-smoking-before-during-pregnancy"/>
                </meta>
                <status value="final"/>
                <code>
                    <coding>
                        <system value="http://loinc.org"/>
                        <code value="87298-6"/>
                        <display value="Cigarettes smoked per day by Mother--1st trimester"/>
                    </coding>
                    <text value="Cigarettes smoked per day by Mother--1st trimester"/>
                </code>
                <subject>
                    <reference value="Patient/patient-mother-jada-ann-quinn"/>
                    <display value="Patient - Mother (Jada Ann Quinn)"/>
                </subject>
                <focus>
                    <reference value="Patient/patient-child-babyg-quinn"/>
                    <display value="BabyG Quinn"/>
                </focus>
                <valueInteger value="3"/>
            </Observation>
        </resource>
    </entry>
    <entry>
        <fullUrl value="http://example.org/fhir/Observation/observation-cig-smoking-pregnancy-3-jada-ann-quinn"/>
        <resource>
            <Observation>
                <id value="observation-cig-smoking-pregnancy-3-jada-ann-quinn"/>
                <meta>
                    <profile value="http://hl7.org/fhir/us/bfdr/StructureDefinition/Observation-cigarette-smoking-before-during-pregnancy"/>
                </meta>
                <status value="final"/>
                <code>
                    <coding>
                        <system value="http://loinc.org"/>
                        <code value="87299-4"/>
                        <display value="Cigarettes smoked per day by Mother--2nd trimester"/>
                    </coding>
                    <text value="Cigarettes smoked per day by Mother--2nd trimester"/>
                </code>
                <subject>
                    <reference value="Patient/patient-mother-jada-ann-quinn"/>
                    <display value="Patient - Mother (Jada Ann Quinn)"/>
                </subject>
                <focus>
                    <reference value="Patient/patient-child-babyg-quinn"/>
                    <display value="BabyG Quinn"/>
                </focus>
                <valueInteger value="1"/>
            </Observation>
        </resource>
    </entry>
    <entry>
        <fullUrl value="http://example.org/fhir/Observation/observation-cig-smoking-pregnancy-4-jada-ann-quinn"/>
        <resource>
            <Observation>
                <id value="observation-cig-smoking-pregnancy-4-jada-ann-quinn"/>
                <meta>
                    <profile value="http://hl7.org/fhir/us/bfdr/StructureDefinition/Observation-cigarette-smoking-before-during-pregnancy"/>
                </meta>
                <status value="final"/>
                <code>
                    <coding>
                        <system value="http://loinc.org"/>
                        <code value="64795-8"/>
                        <display value="In the last 3 months of your pregnancy, how many cigarettes did you smoke on an average day [PhenX]"/>
                    </coding>
                    <text value="In the last 3 months of your pregnancy, how many cigarettes did you smoke on an average day [PhenX]"/>
                </code>
                <subject>
                    <reference value="Patient/patient-mother-jada-ann-quinn"/>
                    <display value="Patient - Mother (Jada Ann Quinn)"/>
                </subject>
                <focus>
                    <reference value="Patient/patient-child-babyg-quinn"/>
                    <display value="BabyG Quinn"/>
                </focus>
                <valueInteger value="0"/>
            </Observation>
        </resource>
    </entry>
    <entry>
        <fullUrl value="http://example.org/fhir/Condition/condition-prepregnancy-diabetes-jada-ann-quinn"/>
        <resource>
            <Condition>
                <id value="condition-prepregnancy-diabetes-jada-ann-quinn"/>
                <meta>
                    <profile value="http://hl7.org/fhir/us/vr-common-library/StructureDefinition/Condition-prepregnancy-diabetes-vr"/>
                </meta>
                <category>
                    <coding>
                        <system value="http://terminology.hl7.org/CodeSystem/condition-category"/>
                        <code value="problem-list-item"/>
                    </coding>
                </category>
                <code>
                    <coding>
                        <system value="http://snomed.info/sct"/>
                        <code value="73211009"/>
                        <display value="Diabetes mellitus (disorder)"/>
                    </coding>
                    <text value="Diabetes mellitus (disorder)"/>
                </code>
                <subject>
                    <reference value="Patient/patient-mother-jada-ann-quinn"/>
                    <display value="Patient - Mother (Jada Ann Quinn)"/>
                </subject>
                <onsetDateTime value="2015-02-12"/>
            </Condition>
        </resource>
    </entry>
    <entry>
        <fullUrl value="http://example.org/fhir/Condition/condition-gestational-hypertension-jada-ann-quinn"/>
        <resource>
            <Condition>
                <id value="condition-gestational-hypertension-jada-ann-quinn"/>
                <meta>
                    <profile value="http://hl7.org/fhir/us/vr-common-library/StructureDefinition/Condition-gestational-hypertension-vr"/>
                </meta>
                <category>
                    <coding>
                        <system value="http://terminology.hl7.org/CodeSystem/condition-category"/>
                        <code value="problem-list-item"/>
                    </coding>
                </category>
                <code>
                    <coding>
                        <system value="http://snomed.info/sct"/>
                        <code value="48194001"/>
                        <display value="Pregnancy-induced hypertension (disorder)"/>
                    </coding>
                    <text value="Pregnancy-induced hypertension (disorder)"/>
                </code>
                <subject>
                    <reference value="Patient/patient-mother-jada-ann-quinn"/>
                    <display value="Patient - Mother (Jada Ann Quinn)"/>
                </subject>
            </Condition>
        </resource>
    </entry>
    <entry>
        <fullUrl value="http://example.org/fhir/Observation/observation-number-previous-cesareans-jada-ann-quinn"/>
        <resource>
            <Observation>
                <id value="observation-number-previous-cesareans-jada-ann-quinn"/>
                <meta>
                    <profile value="http://hl7.org/fhir/us/vr-common-library/StructureDefinition/Observation-number-previous-cesareans-vr"/>
                </meta>
                <status value="final"/>
                <code>
                    <coding>
                        <system value="http://loinc.org"/>
                        <code value="68497-7"/>
                        <display value="Previous cesarean deliveries #"/>
                    </coding>
                    <text value="Previous cesarean deliveries #"/>
                </code>
                <subject>
                    <reference value="Patient/patient-mother-jada-ann-quinn"/>
                    <display value="Patient - Mother (Jada Ann Quinn)"/>
                </subject>
                <valueInteger value="1"/>
            </Observation>
        </resource>
    </entry>
    <entry>
        <fullUrl value="http://example.org/fhir/Condition/condition-infection-present-during-pregnancy-jada-ann-quinn"/>
        <resource>
            <Condition>
                <id value="condition-infection-present-during-pregnancy-jada-ann-quinn"/>
                <meta>
                    <profile value="http://hl7.org/fhir/us/bfdr/StructureDefinition/Condition-infection-present-during-pregnancy"/>
                </meta>
                <category>
                    <coding>
                        <system value="http://terminology.hl7.org/CodeSystem/condition-category"/>
                        <code value="problem-list-item"/>
                        <display value="Problem List Item"/>
                    </coding>
                </category>
                <category>
                    <coding>
                        <system value="http://loinc.org"/>
                        <code value="72519-2"/>
                        <display value="Infections present AndOr treated during this pregnancy for live birth [US Standard Certificate of Live Birth]"/>
                    </coding>
                </category>
                <code>
                    <coding>
                        <system value="http://snomed.info/sct"/>
                        <code value="105629000"/>
                        <display value="Chlamydial infection (disorder)"/>
                    </coding>
                    <text value="Chlamydial infection (disorder)"/>
                </code>
                <subject>
                    <reference value="Patient/patient-mother-jada-ann-quinn"/>
                    <display value="Patient - Mother (Jada Ann Quinn)"/>
                </subject>
            </Condition>
        </resource>
    </entry>
    <entry>
        <fullUrl value="http://example.org/fhir/Procedure/procedure-obstetric-procedure-jada-ann-quinn"/>
        <resource>
            <Procedure>
                <id value="procedure-obstetric-procedure-jada-ann-quinn"/>
                <meta>
                    <profile value="http://hl7.org/fhir/us/bfdr/StructureDefinition/Procedure-obstetric"/>
                </meta>
                <status value="completed"/>
                <code>
                    <coding>
                        <system value="http://snomed.info/sct"/>
                        <code value="240278000"/>
                        <display value="External cephalic version (procedure)"/>
                    </coding>
                    <text value="External cephalic version: Failed"/>
                </code>
                <subject>
                    <reference value="Patient/patient-mother-jada-ann-quinn"/>
                    <display value="Patient - Mother (Jada Ann Quinn)"/>
                </subject>
                <performedPeriod>
                    <start value="2019-02-07T08:30:00-07:00"/>
                    <end value="2019-02-07T08:45:00-07:00"/>
                </performedPeriod>
                <outcome>
                    <coding>
                        <system value="http://snomed.info/sct"/>
                        <code value="385671000"/>
                        <display value="Unsuccessful"/>
                    </coding>
                    <text value="External cephalic version: Unsuccessful"/>
                </outcome>
            </Procedure>
        </resource>
    </entry>
    <entry>
        <fullUrl value="http://example.org/fhir/Condition/condition-chorioamnionitis-jada-ann-quinn"/>
        <resource>
            <Condition>
                <id value="condition-chorioamnionitis-jada-ann-quinn"/>
                <meta>
                    <profile value="http://hl7.org/fhir/us/bfdr/StructureDefinition/Condition-chorioamnionitis"/>
                </meta>
                <category>
                    <coding>
                        <system value="http://terminology.hl7.org/CodeSystem/condition-category"/>
                        <code value="problem-list-item"/>
                    </coding>
                </category>
                <code>
                    <coding>
                        <system value="http://snomed.info/sct"/>
                        <code value="11612004"/>
                        <display value="Chorioamnionitis (disorder)"/>
                    </coding>
                </code>
                <subject>
                    <reference value="Patient/patient-mother-jada-ann-quinn"/>
                    <display value="Patient - Mother (Jada Ann Quinn)"/>
                </subject>
            </Condition>
        </resource>
    </entry>
    <entry>
        <fullUrl value="http://example.org/fhir/Procedure/procedure-induction-of-labor-jada-ann-quinn"/>
        <resource>
            <Procedure>
                <id value="procedure-induction-of-labor-jada-ann-quinn"/>
                <meta>
                    <profile value="http://hl7.org/fhir/us/bfdr/StructureDefinition/Procedure-induction-of-labor"/>
                </meta>
                <status value="completed"/>
                <code>
                    <coding>
                        <system value="http://snomed.info/sct"/>
                        <code value="236958009"/>
                        <display value="Induction of labor (procedure)"/>
                    </coding>
                </code>
                <subject>
                    <reference value="Patient/patient-mother-jada-ann-quinn"/>
                    <display value="Patient - Mother (Jada Ann Quinn)"/>
                </subject>
                <performedPeriod>
                    <start value="2019-02-07T08:30:00-07:00"/>
                    <end value="2019-02-07T08:45:00-07:00"/>
                </performedPeriod>
            </Procedure>
        </resource>
    </entry>
    <entry>
        <fullUrl value="http://example.org/fhir/Observation/observation-fetal-presentation-babyg-quinn"/>
        <resource>
            <Observation>
                <id value="observation-fetal-presentation-babyg-quinn"/>
                <meta>
                    <profile value="http://hl7.org/fhir/us/bfdr/StructureDefinition/Observation-fetal-presentation"/>
                </meta>
                <status value="final"/>
                <code>
                    <coding>
                        <system value="http://loinc.org"/>
                        <code value="73761-9"/>
                        <display value="Fetal presentation--at birth [US Standard Certificate of Live Birth]"/>
                    </coding>
                </code>
                <subject>
                    <reference value="Patient/patient-child-babyg-quinn"/>
                    <display value="Patient - Child (Baby G Quinn)"/>
                </subject>
                <valueCodeableConcept>
                    <coding>
                        <system value="http://snomed.info/sct"/>
                        <code value="6096002"/>
                        <display value="Breech presentation (finding)"/>
                    </coding>
                </valueCodeableConcept>
            </Observation>
        </resource>
    </entry>
    <entry>
        <fullUrl value="http://example.org/fhir/Procedure/procedure-final-route-method-delivery-babyg-quinn"/>
        <resource>
            <Procedure>
                <id value="procedure-final-route-method-delivery-babyg-quinn"/>
                <meta>
                    <profile value="http://hl7.org/fhir/us/bfdr/StructureDefinition/Procedure-final-route-method-delivery"/>
                </meta>
                <status value="completed"/>
                <code>
                    <coding>
                        <system value="http://snomed.info/sct"/>
                        <code value="11466000"/>
                        <display value="Cesarean section"/>
                    </coding>
                    <text value="Cesarean section"/>
                </code>
                <subject>
                    <reference value="Patient/patient-mother-jada-ann-quinn"/>
                    <display value="Patient - Mother (Jada Ann Quinn)"/>
                </subject>
                <performedPeriod>
                    <start value="2019-02-12T12:45:00-07:00"/>
                    <end value="2019-02-12T13:15:00-07:00"/>
                </performedPeriod>
                <reasonReference>
                    <reference value="Observation/observation-labor-trial-attempted-babyg-quinn"/>
                    <display value="Labor trial attempted - true"/>
                </reasonReference>
            </Procedure>
        </resource>
    </entry>
    <entry>
        <fullUrl value="http://example.org/fhir/Condition/condition-ruptured-uterus-jada-ann-quinn"/>
        <resource>
            <Condition>
                <id value="condition-ruptured-uterus-jada-ann-quinn"/>
                <meta>
                    <profile value="http://hl7.org/fhir/us/bfdr/StructureDefinition/Condition-ruptured-uterus"/>
                </meta>
                <category>
                    <coding>
                        <system value="http://terminology.hl7.org/CodeSystem/condition-category"/>
                        <code value="problem-list-item"/>
                        <display value="Problem List Item"/>
                    </coding>
                </category>
                <code>
                    <coding>
                        <system value="http://snomed.info/sct"/>
                        <code value="34430009"/>
                        <display value="Rupture of uterus (disorder)"/>
                    </coding>
                    <text value="Rupture of uterus (disorder)"/>
                </code>
                <subject>
                    <reference value="Patient/patient-mother-jada-ann-quinn"/>
                    <display value="Patient - Mother (Jada Ann Quinn)"/>
                </subject>
            </Condition>
        </resource>
    </entry>
    <entry>
        <fullUrl value="http://example.org/fhir/Observation/observation-birth-weight-babyg-quinn"/>
        <resource>
            <Observation>
                <id value="observation-birth-weight-babyg-quinn"/>
                <meta>
                    <profile value="http://hl7.org/fhir/us/vr-common-library/StructureDefinition/Observation-birth-weight-vr"/>
                </meta>
                <status value="final"/>
                <category>
                    <coding>
                        <system value="http://terminology.hl7.org/CodeSystem/observation-category"/>
                        <code value="vital-signs"/>
                        <display value="Vital Signs"/>
                    </coding>
                    <text value="Vital Signs"/>
                </category>
                <code>
                    <coding>
                        <system value="http://loinc.org"/>
                        <code value="8339-4"/>
                        <display value="Birth weight Measured"/>
                    </coding>
                </code>
                <subject>
                    <reference value="Patient/patient-child-babyg-quinn"/>
                    <display value="BabyG Quinn"/>
                </subject>
                <effectiveDateTime value="2019-02-10"/>
                <valueQuantity>
                    <value value="2500"/>
                    <system value="http://unitsofmeasure.org"/>
                    <code value="g"/>
                </valueQuantity>
            </Observation>
        </resource>
    </entry>
    <entry>
        <fullUrl value="http://example.org/fhir/Observation/observation-gestational-age-at-delivery-babyg-quinn"/>
        <resource>
            <Observation>
                <id value="observation-gestational-age-at-delivery-babyg-quinn"/>
                <meta>
                    <profile value="http://hl7.org/fhir/us/vr-common-library/StructureDefinition/Observation-gestational-age-at-delivery-vr"/>
                </meta>
                <status value="final"/>
                <code>
                    <coding>
                        <system value="http://loinc.org"/>
                        <code value="11884-4"/>
                        <display value="Gestational age Estimated"/>
                    </coding>
                </code>
                <subject>
                    <reference value="Patient/patient-child-babyg-quinn"/>
                    <display value="BabyG Quinn"/>
                </subject>
                <valueQuantity>
                    <value value="36"/>
                    <system value="http://unitsofmeasure.org"/>
                    <code value="wk"/>
                </valueQuantity>
            </Observation>
        </resource>
    </entry>
    <entry>
        <fullUrl value="http://example.org/fhir/Observation/observation-apgar-score-babyg-quinn-1-min"/>
        <resource>
            <Observation>
                <id value="observation-apgar-score-babyg-quinn-1-min"/>
                <meta>
                    <profile value="http://hl7.org/fhir/us/vr-common-library/StructureDefinition/Observation-apgar-score-vr"/>
                </meta>
                <status value="final"/>
                <code>
                    <coding>
                        <system value="http://loinc.org"/>
                        <code value="9272-6"/>
                        <display value="1 minute Apgar Score"/>
                    </coding>
                    <text value="1 minute Apgar Score"/>
                </code>
                <subject>
                    <reference value="Patient/patient-child-babyg-quinn"/>
                    <display value="BabyG Quinn"/>
                </subject>
                <valueInteger value="5"/>
            </Observation>
        </resource>
    </entry>
    <entry>
        <fullUrl value="http://example.org/fhir/Observation/observation-apgar-score-babyg-quinn-5-min"/>
        <resource>
            <Observation>
                <id value="observation-apgar-score-babyg-quinn-5-min"/>
                <meta>
                    <profile value="http://hl7.org/fhir/us/vr-common-library/StructureDefinition/Observation-apgar-score-vr"/>
                </meta>
                <status value="final"/>
                <code>
                    <coding>
                        <system value="http://loinc.org"/>
                        <code value="9274-2"/>
                        <display value="5 minute Apgar Score"/>
                    </coding>
                    <text value="5 minute Apgar Score"/>
                </code>
                <subject>
                    <reference value="Patient/patient-child-babyg-quinn"/>
                    <display value="BabyG Quinn"/>
                </subject>
                <valueInteger value="7"/>
            </Observation>
        </resource>
    </entry>
    <entry>
        <fullUrl value="http://example.org/fhir/Condition/condition-congenital-anomaly-of-newborn-babyg-quinn"/>
        <resource>
            <Condition>
                <id value="condition-congenital-anomaly-of-newborn-babyg-quinn"/>
                <meta>
                    <profile value="http://hl7.org/fhir/us/bfdr/StructureDefinition/Condition-congenital-anomaly-of-newborn"/>
                </meta>
                <category>
                    <coding>
                        <system value="http://terminology.hl7.org/CodeSystem/condition-category"/>
                        <code value="problem-list-item"/>
                        <display value="Problem List Item"/>
                    </coding>
                </category>
                <category>
                    <coding>
                        <system value="http://loinc.org"/>
                        <code value="73780-9"/>
                        <display value="Congenital anomalies of the newborn [US Standard Certificate of Live Birth]"/>
                    </coding>
                </category>
                <code>
                    <coding>
                        <system value="http://snomed.info/sct"/>
                        <code value="12770006"/>
                        <display value="Cyanotic congenital heart disease (disorder)"/>
                    </coding>
                    <text value="Cyanotic congenital heart disease (disorder)"/>
                </code>
                <subject>
                    <reference value="Patient/patient-child-babyg-quinn"/>
                    <display value="BabyG Quinn"/>
                </subject>
            </Condition>
        </resource>
    </entry>
    <entry>
        <fullUrl value="http://example.org/fhir/Condition/condition-congenital-anomaly-of-newborn-babyg-quinn-2"/>
        <resource>
            <Condition>
                <id value="condition-congenital-anomaly-of-newborn-babyg-quinn-2"/>
                <meta>
                    <profile value="http://hl7.org/fhir/us/bfdr/StructureDefinition/Condition-congenital-anomaly-of-newborn"/>
                </meta>
                <category>
                    <coding>
                        <system value="http://terminology.hl7.org/CodeSystem/condition-category"/>
                        <code value="problem-list-item"/>
                        <display value="Problem List Item"/>
                    </coding>
                </category>
                <category>
                    <coding>
                        <system value="http://loinc.org"/>
                        <code value="73780-9"/>
                        <display value="Congenital anomalies of the newborn [US Standard Certificate of Live Birth]"/>
                    </coding>
                </category>
                <code>
                    <coding>
                        <system value="http://snomed.info/sct"/>
                        <code value="70156005"/>
                        <display value="Anomaly of chromosome pair 21 (disorder)"/>
                    </coding>
                    <text value="Anomaly of chromosome pair 21 (disorder)"/>
                </code>
                <subject>
                    <reference value="Patient/patient-child-babyg-quinn"/>
                    <display value="Patient - Child (Baby G Quinn)"/>
                </subject>
                <evidence>
                    <code>
                        <coding>
                            <system value="http://snomed.info/sct"/>
                            <code value="312948004"/>
                            <display value="Karyotype determination"/>
                        </coding>
                        <text value="Karyotype determination pending"/>
                    </code>
                </evidence>
            </Condition>
        </resource>
    </entry>
    <entry>
        <fullUrl value="http://example.org/fhir/Observation/observation-infant-living-babyg-quinn"/>
        <resource>
            <Observation>
                <id value="observation-infant-living-babyg-quinn"/>
                <meta>
                    <profile value="http://hl7.org/fhir/us/vr-common-library/StructureDefinition/Observation-infant-living-vr"/>
                </meta>
                <status value="final"/>
                <code>
                    <coding>
                        <system value="http://loinc.org"/>
                        <code value="73757-7"/>
                        <display value="Infant living at time of report [US Standard Certificate of Live Birth]"/>
                    </coding>
                </code>
                <subject>
                    <reference value="Patient/patient-child-babyg-quinn"/>
                    <display value="BabyG Quinn"/>
                </subject>
                <valueBoolean value="true"/>
            </Observation>
        </resource>
    </entry>
    <entry>
        <fullUrl value="http://example.org/fhir/Observation/observation-infant-breastfed-at-discharge-babyg-quinn"/>
        <resource>
            <Observation>
                <id value="observation-infant-breastfed-at-discharge-babyg-quinn"/>
                <meta>
                    <profile value="http://hl7.org/fhir/us/bfdr/StructureDefinition/Observation-infant-breastfed-at-discharge"/>
                </meta>
                <status value="final"/>
                <code>
                    <coding>
                        <system value="http://loinc.org"/>
                        <code value="73756-9"/>
                        <display value="Infant is being breastfed at discharge [US Standard Certificate of Live Birth]"/>
                    </coding>
                    <text value="Infant is being breastfed at discharge [US Standard Certificate of Live Birth]"/>
                </code>
                <subject>
                    <reference value="Patient/patient-child-babyg-quinn"/>
                    <display value="BabyG Quinn"/>
                </subject>
                <issued value="2019-02-15T09:45:00-07:00"/>
                <valueBoolean value="true"/>
            </Observation>
        </resource>
    </entry>
    <entry>
        <fullUrl value="http://example.org/fhir/Observation/observation-mother-married-during-pregnancy-jada-ann-quinn"/>
        <resource>
            <Observation>
                <id value="observation-mother-married-during-pregnancy-jada-ann-quinn"/>
                <meta>
                    <profile value="http://hl7.org/fhir/us/bfdr/StructureDefinition/Observation-mother-married-during-pregnancy"/>
                </meta>
                <status value="final"/>
                <code>
                    <coding>
                        <system value="http://loinc.org"/>
                        <code value="87301-8"/>
                        <display value="Mother was married at any time during pregnancy"/>
                    </coding>
                    <text value="Was mother married at conception, at the time of birth, or at any time between conception and giving birth?"/>
                </code>
                <subject>
                    <reference value="Patient/patient-child-babyg-quinn"/>
                    <display value="BabyG Quinn"/>
                </subject>
                <focus>
                    <reference value="Patient/patient-mother-jada-ann-quinn"/>
                    <display value="Patient - Mother (Jada Ann Quinn)"/>
                </focus>
                <valueCodeableConcept>
                    <coding>
                        <system value="http://terminology.hl7.org/CodeSystem/v2-0532"/>
                        <code value="Y"/>
                        <display value="Yes"/>
                    </coding>
                </valueCodeableConcept>
            </Observation>
        </resource>
    </entry>
    <entry>
        <fullUrl value="http://example.org/fhir/Observation/observation-parent-education-level-jada-ann-quinn"/>
        <resource>
            <Observation>
                <id value="observation-parent-education-level-jada-ann-quinn"/>
                <meta>
                    <profile value="http://hl7.org/fhir/us/vr-common-library/StructureDefinition/Observation-parent-education-level-vr"/>
                </meta>
                <status value="final"/>
                <code>
                    <coding>
                        <system value="http://loinc.org"/>
                        <code value="57712-2"/>
                        <display value="Highest level of education Mother"/>
                    </coding>
                </code>
                <subject>
                    <reference value="Patient/patient-child-babyg-quinn"/>
                </subject>
                <focus>
                    <reference value="Patient/patient-mother-jada-ann-quinn"/>
                </focus>
                <valueCodeableConcept>
                    <coding>
                        <system value="urn:oid:2.16.840.1.114222.4.5.274"/>
                        <code value="PHC1455"/>
                        <display value="Doctorate Degree or Professional Degree"/>
                    </coding>
                    <text value="Doctorate Degree or Professional Degree"/>
                </valueCodeableConcept>
            </Observation>
        </resource>
    </entry>
    <entry>
        <fullUrl value="http://example.org/fhir/Observation/observation-ssn-requested-for-child-babyg-quinn"/>
        <resource>
            <Observation>
                <id value="observation-ssn-requested-for-child-babyg-quinn"/>
                <meta>
                    <profile value="http://hl7.org/fhir/us/bfdr/StructureDefinition/Observation-ssn-requested-for-child"/>
                </meta>
                <status value="final"/>
                <code>
                    <coding>
                        <system value="http://loinc.org"/>
                        <code value="87295-2"/>
                        <display value="Social Security Number was requested"/>
                    </coding>
                    <text value="Social security number requested for child"/>
                </code>
                <subject>
                    <reference value="Patient/patient-child-babyg-quinn"/>
                    <display value="BabyG Quinn"/>
                </subject>
                <focus>
                    <reference value="Patient/patient-mother-jada-ann-quinn"/>
                    <display value="Patient - Mother (Jada Ann Quinn)"/>
                </focus>
                <valueBoolean value="true"/>
            </Observation>
        </resource>
    </entry>
    <entry>
        <fullUrl value="http://example.org/fhir/RelatedPerson/relatedperson-father-natural-james-brandon-quinn"/>
        <resource>
            <RelatedPerson>
                <id value="relatedperson-father-natural-james-brandon-quinn"/>
                <meta>
                    <profile value="http://hl7.org/fhir/us/vr-common-library/StructureDefinition/RelatedPerson-father-natural-vr"/>
                </meta>
                <extension url="http://hl7.org/fhir/us/core/StructureDefinition/us-core-race">
                    <extension url="ombCategory">
                        <valueCoding>
                            <system value="urn:oid:2.16.840.1.113883.6.238"/>
                            <code value="2106-3"/>
                            <display value="White"/>
                        </valueCoding>
                    </extension>
                    <extension url="text">
                        <valueString value="White"/>
                    </extension>
                </extension>
                <extension url="http://hl7.org/fhir/us/core/StructureDefinition/us-core-ethnicity">
                    <extension url="ombCategory">
                        <valueCoding>
                            <system value="urn:oid:2.16.840.1.113883.6.238"/>
                            <code value="2186-5"/>
                            <display value="Not Hispanic or Latino"/>
                        </valueCoding>
                    </extension>
                    <extension url="text">
                        <valueString value="Not Hispanic or Latino"/>
                    </extension>
                </extension>
                <extension url="http://hl7.org/fhir/us/vr-common-library/StructureDefinition/Extension-relatedperson-birthplace-vr">
                    <valueAddress>
                        <state value="NY"/>
                    </valueAddress>
                </extension>
                <identifier>
                    <type>
                        <coding>
                            <system value="http://terminology.hl7.org/CodeSystem/v2-0203"/>
                            <code value="SS"/>
                        </coding>
                    </type>
                    <system value="http://hl7.org/fhir/sid/us-ssn"/>
                    <value value="132225987"/>
                </identifier>
                <active value="true"/>
                <patient>
                    <reference value="Patient/patient-child-babyg-quinn"/>
                </patient>
                <relationship>
                    <coding>
                        <system value="http://terminology.hl7.org/CodeSystem/v3-RoleCode"/>
                        <code value="NFTH"/>
                        <display value="natural father"/>
                    </coding>
                    <text value="Natural Father"/>
                </relationship>
                <name>
                    <use value="official"/>
                    <family value="Quinn"/>
                    <given value="James"/>
                    <given value="Brandon"/>
                </name>
                <gender value="male"/>
                <birthDate value="1972-11-24"/>
            </RelatedPerson>
        </resource>
    </entry>
    <entry>
        <fullUrl value="http://example.org/fhir/Observation/observation-paternity-acknowledgement-signed-james-quinn"/>
        <resource>
            <Observation>
                <id value="observation-paternity-acknowledgement-signed-james-quinn"/>
                <meta>
                    <profile value="http://hl7.org/fhir/us/bfdr/StructureDefinition/Observation-paternity-acknowledgement-signed"/>
                </meta>
                <status value="final"/>
                <code>
                    <coding>
                        <system value="http://loinc.org"/>
                        <code value="87302-6"/>
                        <display value="Paternity acknowledgment form signed Father"/>
                    </coding>
                    <text value="Paternity acknowledgment form signed Father"/>
                </code>
                <subject>
                    <reference value="Patient/patient-child-babyg-quinn"/>
                    <display value="Patient - Child (Baby G Quinn)"/>
                </subject>
                <focus>
                    <reference value="RelatedPerson/relatedperson-father-natural-james-brandon-quinn"/>
                    <display value="RelatedPerson - Father (James Brandon Quinn)"/>
                </focus>
                <valueCodeableConcept>
                    <coding>
                        <system value="http://terminology.hl7.org/CodeSystem/v2-0532"/>
                        <code value="Y"/>
                        <display value="Yes"/>
                    </coding>
                </valueCodeableConcept>
            </Observation>
        </resource>
    </entry>
    <entry>
        <fullUrl value="http://example.org/fhir/Observation/observation-parent-education-level-james-quinn"/>
        <resource>
            <Observation>
                <id value="observation-parent-education-level-james-quinn"/>
                <meta>
                    <profile value="http://hl7.org/fhir/us/vr-common-library/StructureDefinition/Observation-parent-education-level-vr"/>
                </meta>
                <status value="final"/>
                <code>
                    <coding>
                        <system value="http://loinc.org"/>
                        <code value="87300-0"/>
                        <display value="Highest level of education Father"/>
                    </coding>
                </code>
                <subject>
                    <reference value="Patient/patient-child-babyg-quinn"/>
                </subject>
                <focus>
                    <reference value="RelatedPerson/relatedperson-father-natural-james-brandon-quinn"/>
                </focus>
                <valueCodeableConcept>
                    <coding>
                        <system value="urn:oid:2.16.840.1.114222.4.5.274"/>
                        <code value="PHC1455"/>
                        <display value="Doctorate Degree or Professional Degree"/>
                    </coding>
                    <text value="Doctorate Degree or Professional Degree"/>
                </valueCodeableConcept>
            </Observation>
        </resource>
    </entry>
    <entry>
        <fullUrl value="http://example.org/fhir/QuestionnaireResponse/QuestionnaireResponse-mothers-live-birth-jada-quinn"/>
        <resource>
            <QuestionnaireResponse>
                <id value="QuestionnaireResponse-mothers-live-birth-jada-quinn"/>
                <questionnaire value="http://hl7.org/fhir/us/bfdr/Questionnaire/Questionnaire-mothers-live-birth"/>
                <status value="completed"/>
                <subject>
                    <reference value="Patient/patient-child-babyg-quinn"/>
                    <display value="BabyG Quinn"/>
                </subject>
                <source>
                    <reference value="Patient/patient-mother-jada-ann-quinn"/>
                    <display value="Patient - Mother (Jada Ann Quinn)"/>
                </source>
                <item>
                    <linkId value="mother-current-legal-name"/>
                    <text value="What is your current legal name?"/>
                    <item>
                        <linkId value="mother-first-name"/>
                        <text value="First"/>
                        <answer>
                            <valueString value="Jada"/>
                        </answer>
                    </item>
                    <item>
                        <linkId value="mother-middle-name"/>
                        <text value="Middle"/>
                        <answer>
                            <valueString value="Ann"/>
                        </answer>
                    </item>
                    <item>
                        <linkId value="mother-last-name"/>
                        <text value="Last"/>
                        <answer>
                            <valueString value="Quinn"/>
                        </answer>
                    </item>
                </item>
                <item>
                    <linkId value="child-name"/>
                    <text value="What will be your baby's legal name (as it should appear on the birth certificate)?"/>
                    <item>
                        <linkId value="child-first-name"/>
                        <text value="First"/>
                        <answer>
                            <valueString value="Baby"/>
                        </answer>
                    </item>
                    <item>
                        <linkId value="child-middle-name"/>
                        <text value="Middle"/>
                        <answer>
                            <valueString value="G"/>
                        </answer>
                    </item>
                    <item>
                        <linkId value="child-last-name"/>
                        <text value="Last"/>
                        <answer>
                            <valueString value="Quinn"/>
                        </answer>
                    </item>
                </item>
                <item>
                    <linkId value="mother-address"/>
                    <text value="Where do you usually live - that is - where is your household/residence located?"/>
                    <item>
                        <linkId value="mother-nbr-street"/>
                        <text value="Complete number and street (do not enter rural route numbers)"/>
                        <answer>
                            <valueString value="1875 West Morton Avenue"/>
                        </answer>
                    </item>
                    <item>
                        <linkId value="mother-city"/>
                        <text value="City, Town, or Location"/>
                        <answer>
                            <valueString value="Salt Lake City"/>
                        </answer>
                    </item>
                    <item>
                        <linkId value="mother-county"/>
                        <text value="County"/>
                        <answer>
                            <valueString value="Salt Lake"/>
                        </answer>
                    </item>
                    <item>
                        <linkId value="mother-state"/>
                        <text value="State (or U.S. Territory, Canadian Province)"/>
                        <answer>
                            <valueString value="UT"/>
                        </answer>
                    </item>
                    <item>
                        <linkId value="mother-zip"/>
                        <text value="Zip Code"/>
                        <answer>
                            <valueString value="84116"/>
                        </answer>
                    </item>
                </item>
                <item>
                    <linkId value="inside-city-limits"/>
                    <text value="Is this household inside city limits (inside the incorporated limits of the city, town, or location where you live)?"/>
                    <answer>
                        <valueCoding>
                            <system value="http://terminology.hl7.org/CodeSystem/v2-0532"/>
                            <code value="Y"/>
                            <display value="Yes"/>
                        </valueCoding>
                    </answer>
                </item>
                <item>
                    <linkId value="mother-mail"/>
                    <text value="What is your mailing address"/>
                    <item>
                        <linkId value="mother-mail-same"/>
                        <text value="Same as residence [Go to next question]"/>
                        <answer>
                            <valueBoolean value="false"/>
                        </answer>
                    </item>
                    <item>
                        <linkId value="mother-mail-nbr-street"/>
                        <text value="Complete number and street"/>
                        <answer>
                            <valueString value="1848 South 1300 East"/>
                        </answer>
                    </item>
                    <item>
                        <linkId value="mother-mail-city"/>
                        <text value="City, Town, or Location"/>
                        <answer>
                            <valueString value="Salt Lake City"/>
                        </answer>
                    </item>
                    <item>
                        <linkId value="mother-mail-state"/>
                        <text value="State (or U.S. Territory, Canadian Province)"/>
                        <answer>
                            <valueString value="UT"/>
                        </answer>
                    </item>
                    <item>
                        <linkId value="mother-mail-zip"/>
                        <text value="Zip Code"/>
                        <answer>
                            <valueString value="84401"/>
                        </answer>
                    </item>
                </item>
                <item>
                    <linkId value="mother-dob"/>
                    <text value="What is your date of birth?"/>
                    <answer>
                        <valueDate value="1985-01-15"/>
                    </answer>
                </item>
                <item>
                    <linkId value="mother-birthplace"/>
                    <text value="In what State, U.S. territory, or foreign country were you born? Please specify one of the following:"/>
                    <item>
                        <linkId value="mother-birthplace-state"/>
                        <text value="State"/>
                        <answer>
                            <valueString value="UT"/>
                        </answer>
                    </item>
                </item>
                <item>
                    <linkId value="mother-education"/>
                    <text value="What is the highest level of schooling that you have completed at the time of delivery? (Check the box that best describes your education. If you are currently enrolled, check the box that indicates the previous grade or highest degree received)."/>
                    <answer>
                        <valueCoding>
                            <system value="urn:oid:2.16.840.1.114222.4.5.274"/>
                            <code value="PHC1455"/>
                            <display value="Doctorate Degree or Professional Degree"/>
                        </valueCoding>
                    </answer>
                </item>
                <item>
                    <linkId value="mother-ethnicity"/>
                    <text value="Are you Spanish/Hispanic/Latina? If not Spanish/Hispanic/Latina, check the No box. If Spanish/Hispanic/Latina, check the appropriate box."/>
                    <item>
                        <linkId value="mother-shl"/>
                        <text value="Are you Spanish/Hispanic/Latina"/>
                        <answer>
                            <valueCoding>
                                <system value="urn:oid:2.16.840.1.113883.6.238"/>
                                <code value="2186-5"/>
                                <display value="Not Hispanic or Latino"/>
                            </valueCoding>
                        </answer>
                    </item>
                </item>
                <item>
                    <linkId value="mother-race"/>
                    <text value="What is your race? (Please check one or more races to indicate what you consider yourself to be)."/>
                    <item>
                        <linkId value="mother-race-category"/>
                        <text value="Race categories"/>
                        <answer>
                            <valueCoding>
                                <system value="urn:oid:2.16.840.1.113883.6.238"/>
                                <code value="2106-3"/>
                                <display value="White"/>
                            </valueCoding>
                        </answer>
                    </item>
                    <item>
                        <linkId value="mother-detailed-race"/>
                        <text value="Extended race codes"/>
                        <answer>
                            <valueCoding>
                                <system value="urn:oid:2.16.840.1.113883.6.238"/>
                                <code value="1004-1"/>
                                <display value="American Indian"/>
                            </valueCoding>
                        </answer>
                    </item>
                </item>
                <item>
                    <linkId value="receive-wic"/>
                    <text value="Did you receive WIC (Women, Infants and Children) food for yourself during this pregnancy?"/>
                    <answer>
                        <valueCoding>
                            <system value="http://terminology.hl7.org/CodeSystem/v2-0532"/>
                            <code value="Y"/>
                            <display value="Yes"/>
                        </valueCoding>
                    </answer>
                </item>
                <item>
                    <linkId value="infertility-treatment"/>
                    <text value="Did this pregnancy result from infertility treatment? (If yes, please answer 12a and 12b)"/>
                    <answer>
                        <valueBoolean value="true"/>
                        <item>
                            <linkId value="drugs-ai-ii"/>
                            <text value="If yes, did this pregnancy result from fertility-enhancing drugs, artificial insemination, or intrauterine insemination?"/>
                            <answer>
                                <valueBoolean value="false"/>
                            </answer>
                        </item>
                        <item>
                            <linkId value="art-ivf-gift"/>
                            <text value="If yes, did this pregnancy result from assisted reproductive technology (e.g., in-vitro fertilization (IVF), gamete intrafallopian transfer (GIFT))?"/>
                            <answer>
                                <valueBoolean value="true"/>
                            </answer>
                        </item>
                    </answer>
                </item>
                <item>
                    <linkId value="mothers-height"/>
                    <text value="What is your height?"/>
                    <item>
                        <linkId value="mothers-height-feet"/>
                        <text value="Feet"/>
                        <answer>
                            <valueQuantity>
                                <value value="5"/>
                                <unit value="ft"/>
                                <system value="http://unitsofmeasure.org"/>
                                <code value="ft"/>
                            </valueQuantity>
                        </answer>
                    </item>
                    <item>
                        <linkId value="mothers-height-inches"/>
                        <text value="Inches"/>
                        <answer>
                            <valueQuantity>
                                <value value="7"/>
                                <unit value="[in_i]"/>
                                <system value="http://unitsofmeasure.org"/>
                                <code value="[in_i]"/>
                            </valueQuantity>
                        </answer>
                    </item>
                </item>
                <item>
                    <linkId value="mothers-prepregnancy-weight"/>
                    <text value="lbs"/>
                    <answer>
                        <valueQuantity>
                            <value value="145"/>
                            <unit value="[lb_av]"/>
                            <system value="http://unitsofmeasure.org"/>
                            <code value="[lb_av]"/>
                        </valueQuantity>
                    </answer>
                </item>
                <item>
                    <linkId value="mothers-smoking"/>
                    <text value="How many cigarettes OR packs of cigarettes did you smoke on an average day during each of the following time periods? If you NEVER smoked, enter zero for each time period."/>
                    <item>
                        <linkId value="mothers-smoking-3-months-prior"/>
                        <text value="Three months before pregnancy"/>
                        <item>
                            <linkId value="mothers-smoking-3-months-prior-cig"/>
                            <text value="# of cigarettes*"/>
                            <answer>
                                <valueInteger value="0"/>
                            </answer>
                        </item>
                        <item>
                            <linkId value="mothers-smoking-3-months-prior-pck"/>
                            <text value="# of packs"/>
                            <answer>
                                <valueInteger value="1"/>
                            </answer>
                        </item>
                    </item>
                    <item>
                        <linkId value="mothers-smoking-trimester-1"/>
                        <text value="First three months of pregnancy"/>
                        <item>
                            <linkId value="mothers-smoking-trimester-1-cig"/>
                            <text value="# of cigarettes*"/>
                            <answer>
                                <valueInteger value="3"/>
                            </answer>
                        </item>
                        <item>
                            <linkId value="mothers-smoking-trimester-1-pck"/>
                            <text value="# of packs"/>
                            <answer>
                                <valueInteger value="0"/>
                            </answer>
                        </item>
                    </item>
                    <item>
                        <linkId value="mothers-smoking-trimester-2"/>
                        <text value="Second three months of pregnancy"/>
                        <item>
                            <linkId value="mothers-smoking-trimester-2-cig"/>
                            <text value="# of cigarettes*"/>
                            <answer>
                                <valueInteger value="1"/>
                            </answer>
                        </item>
                        <item>
                            <linkId value="mothers-smoking-trimester-2-pck"/>
                            <text value="# of packs"/>
                            <answer>
                                <valueInteger value="0"/>
                            </answer>
                        </item>
                    </item>
                    <item>
                        <linkId value="mothers-smoking-trimester-3"/>
                        <text value="Third trimester of pregnancy"/>
                        <item>
                            <linkId value="mothers-smoking-trimester-3-cig"/>
                            <text value="# of cigarettes*"/>
                            <answer>
                                <valueInteger value="0"/>
                            </answer>
                        </item>
                        <item>
                            <linkId value="mothers-smoking-trimester-3-pck"/>
                            <text value="# of packs"/>
                            <answer>
                                <valueInteger value="0"/>
                            </answer>
                        </item>
                    </item>
                </item>
                <item>
                    <linkId value="mother-prior-name"/>
                    <text value="What name did you use prior to your first marriage?"/>
                    <item>
                        <linkId value="mother-prior-first-name"/>
                        <text value="First"/>
                        <answer>
                            <valueString value="Jada"/>
                        </answer>
                    </item>
                    <item>
                        <linkId value="mother-prior-middle-name"/>
                        <text value="Middle"/>
                        <answer>
                            <valueString value="Ann"/>
                        </answer>
                    </item>
                    <item>
                        <linkId value="mother-prior-last-name"/>
                        <text value="Last"/>
                        <answer>
                            <valueString value="King"/>
                        </answer>
                    </item>
                </item>
                <item>
                    <linkId value="married-conception"/>
                    <text value="Were you married at the time you conceived this child, at the time of birth, or at any time between conception and giving birth? [If yes, please go to question 19; If no, please see below]"/>
                    <answer>
                        <valueBoolean value="true"/>
                    </answer>
                </item>
                <item>
                    <linkId value="father-current-legal-name"/>
                    <text value="What is the current legal name of your baby's father?"/>
                    <item>
                        <linkId value="father-first-name"/>
                        <text value="First"/>
                        <answer>
                            <valueString value="James"/>
                        </answer>
                    </item>
                    <item>
                        <linkId value="father-middle-name"/>
                        <text value="Middle"/>
                        <answer>
                            <valueString value="Brandon"/>
                        </answer>
                    </item>
                    <item>
                        <linkId value="father-last-name"/>
                        <text value="Last"/>
                        <answer>
                            <valueString value="Quinn"/>
                        </answer>
                    </item>
                </item>
                <item>
                    <linkId value="father-dob"/>
                    <text value="What the father's date of birth?"/>
                    <answer>
                        <valueDate value="1983-09-27"/>
                    </answer>
                </item>
                <item>
                    <linkId value="father-birthplace"/>
                    <text value="In what State, U.S. territory, or foreign country was the father born? Please specify one of the following:"/>
                    <item>
                        <linkId value="father-birthplace-state"/>
                        <text value="State"/>
                        <answer>
                            <valueString value="NY"/>
                        </answer>
                    </item>
                </item>
                <item>
                    <linkId value="father-education"/>
                    <text value="What is the highest level of schooling that the father will have completed at the time of delivery? (Check the box that best describes his education. If he is currently enrolled, check the box that indicates the previous grade or highest degree received)."/>
                    <answer>
                        <valueCoding>
                            <system value="urn:oid:2.16.840.1.114222.4.5.274"/>
                            <code value="PHC1455"/>
                            <display value="Doctorate Degree or Professional Degree"/>
                        </valueCoding>
                    </answer>
                </item>
                <item>
                    <linkId value="father-ethnicity"/>
                    <text value="Is the father Spanish/Hispanic/Latina? If not Spanish/Hispanic/Latina, check the No box. If Spanish/Hispanic/Latina, check the appropriate box."/>
                    <item>
                        <linkId value="father-shl"/>
                        <text value="Is the father Spanish/Hispanic/Latina"/>
                        <answer>
                            <valueCoding>
                                <system value="urn:oid:2.16.840.1.113883.6.238"/>
                                <code value="2186-5"/>
                                <display value="Not Hispanic or Latino"/>
                            </valueCoding>
                        </answer>
                    </item>
                </item>
                <item>
                    <linkId value="father-race"/>
                    <text value="What is the father's race? (Please check one or more races to indicate what he considers himself to be)."/>
                    <item>
                        <linkId value="father-race-category"/>
                        <text value="Race categories"/>
                        <answer>
                            <valueCoding>
                                <system value="urn:oid:2.16.840.1.113883.6.238"/>
                                <code value="2106-3"/>
                                <display value="White"/>
                            </valueCoding>
                        </answer>
                    </item>
                </item>
                <item>
                    <linkId value="parents-ssn"/>
                    <text value="Furnishing parent(s) Social Security Number(s) (SSNs) is required by Federal Law, 42 USC 405(c) (section 205(c) of the Social Security Act). The number(s) will be made available to the (State Social Services Agency) to assist with child support enforcement activities and to the Internal Revenue Service for the purpose of determining Earned Income Tax Credit compliance."/>
                    <item>
                        <linkId value="mother-ssn"/>
                        <text value="What is your Social Security Number?"/>
                        <answer>
                            <valueString value="132-22-5986"/>
                        </answer>
                    </item>
                    <item>
                        <linkId value="father-ssn"/>
                        <text value="What is the fathers Social Security Number? If you are not married, and if a paternity acknowledgment has not been completed, leave this item blank."/>
                        <answer>
                            <valueString value="132-22-5987"/>
                        </answer>
                    </item>
                </item>
                <item>
                    <linkId value="baby-ssn"/>
                    <text value="Do you want a Social Security Number issued for your baby? [If yes, please sign request below"/>
                    <answer>
                        <valueBoolean value="false"/>
                    </answer>
                </item>
                <item>
                    <linkId value="informant-name"/>
                    <text value="If other than the mother, what is the name of the person providing information for this worksheet?"/>
                    <item>
                        <linkId value="informant-first-name"/>
                        <text value="First"/>
                        <answer>
                            <valueString value="Jane"/>
                        </answer>
                    </item>
                    <item>
                        <linkId value="informant-last-name"/>
                        <text value="Last"/>
                        <answer>
                            <valueString value="King"/>
                        </answer>
                    </item>
                </item>
                <item>
                    <linkId value="informant-relationship"/>
                    <text value="What is your relationship to the baby's mother?"/>
                    <answer>
                        <valueCoding>
                            <system value="urn:oid:2.16.840.1.114222.4.5.274"/>
                            <code value="PHC1497"/>
                            <display value="Other relative"/>
                        </valueCoding>
                    </answer>
                </item>
            </QuestionnaireResponse>
        </resource>
    </entry>
    <entry>
        <fullUrl value="http://example.org/fhir/Location/location-east-hospital"/>
        <resource>
            <Location>
                <id value="location-east-hospital"/>
                <meta>
                    <profile value="http://hl7.org/fhir/us/core/StructureDefinition/us-core-location"/>
                </meta>
                <status value="active"/>
                <name value="East Hospital"/>
                <type>
                    <coding>
                        <system value="http://terminology.hl7.org/CodeSystem/v3-RoleCode"/>
                        <code value="HOSP"/>
                        <display value="Hospital"/>
                    </coding>
                </type>
            </Location>
        </resource>
    </entry>
    <entry>
        <fullUrl value="http://example.org/fhir/Location/location-south-hospital"/>
        <resource>
            <Location>
                <id value="location-south-hospital"/>
                <meta>
                    <profile value="http://hl7.org/fhir/us/core/StructureDefinition/us-core-location"/>
                </meta>
                <status value="active"/>
                <name value="South Hospital"/>
                <type>
                    <coding>
                        <system value="http://terminology.hl7.org/CodeSystem/v3-RoleCode"/>
                        <code value="HOSP"/>
                        <display value="Hospital"/>
                    </coding>
                </type>
            </Location>
        </resource>
    </entry>
    <entry>
        <fullUrl value="http://example.org/fhir/Location/location-north-hospital"/>
        <resource>
            <Location>
                <id value="location-north-hospital"/>
                <meta>
                    <profile value="http://hl7.org/fhir/us/core/StructureDefinition/us-core-location"/>
                </meta>
                <status value="active"/>
                <name value="North Hospital"/>
                <type>
                    <coding>
                        <system value="http://terminology.hl7.org/CodeSystem/v3-RoleCode"/>
                        <code value="HOSP"/>
                        <display value="Hospital"/>
                    </coding>
                </type>
            </Location>
        </resource>
    </entry>
    <entry>
        <fullUrl value="http://example.org/fhir/Organization/organization-south-hospital"/>
        <resource>
            <Organization>
                <id value="organization-south-hospital"/>
                <identifier>
                    <system value="http://hl7.org/fhir/sid/us-npi"/>
                    <value value="5555512"/>
                </identifier>
                <active value="true"/>
                <type>
                    <coding>
                        <system value="http://terminology.hl7.org/CodeSystem/v3-RoleCode"/>
                        <code value="HOSP"/>
                        <display value="Hospital"/>
                    </coding>
                </type>
                <name value="South Hospital"/>
                <telecom>
                    <system value="phone"/>
                    <value value="+1-555-555-1111"/>
                </telecom>
                <telecom>
                    <system value="email"/>
                    <value value="mail@southhospital.com"/>
                </telecom>
                <address>
                    <line value="2100 North Ave"/>
                    <city value="Salt Lake City"/>
                    <state value="UT"/>
                    <postalCode value="84116"/>
                    <country value="US"/>
                </address>
            </Organization>
        </resource>
    </entry>
    <entry>
        <fullUrl value="http://example.org/fhir/Observation/observation-labor-trial-attempted-babyg-quinn"/>
        <resource>
            <Observation>
                <id value="observation-labor-trial-attempted-babyg-quinn"/>
                <meta>
                    <profile value="http://hl7.org/fhir/us/bfdr/StructureDefinition/Observation-labor-trial-attempted"/>
                </meta>
                <status value="final"/>
                <code>
                    <coding>
                        <system value="http://loinc.org"/>
                        <code value="73760-1"/>
                        <display value="If cesarean, a trial of labor was attempted [US Standard Certificate of Live Birth]"/>
                    </coding>
                    <text value="If cesarean, a trial of labor was attempted [US Standard Certificate of Live Birth]"/>
                </code>
                <subject>
                    <reference value="Patient/patient-child-babyg-quinn"/>
                    <display value="BabyG Quinn"/>
                </subject>
                <focus>
                    <reference value="Patient/patient-mother-jada-ann-quinn"/>
                    <display value="Patient - Mother (Jada Ann Quinn)"/>
                </focus>
                <issued value="2019-02-12T08:55:30-07:00"/>
                <valueBoolean value="true"/>
            </Observation>
        </resource>
    </entry>
    <entry>
        <fullUrl value="http://example.org/fhir/RelatedPerson/relatedperson-mother-jada-ann-quinn"/>
        <resource>
            <RelatedPerson>
                <id value="relatedperson-mother-jada-ann-quinn"/>
                <meta>
                    <profile value="http://hl7.org/fhir/us/vr-common-library/StructureDefinition/RelatedPerson-mother-gestational-vr"/>
                </meta>
                <extension url="http://hl7.org/fhir/us/core/StructureDefinition/us-core-race">
                    <extension url="ombCategory">
                        <valueCoding>
                            <system value="urn:oid:2.16.840.1.113883.6.238"/>
                            <code value="2106-3"/>
                            <display value="White"/>
                        </valueCoding>
                    </extension>
                    <extension url="ombCategory">
                        <valueCoding>
                            <system value="urn:oid:2.16.840.1.113883.6.238"/>
                            <code value="1002-5"/>
                            <display value="American Indian or Alaska Native"/>
                        </valueCoding>
                    </extension>
                    <extension url="text">
                        <valueString value="White, American Indian or Alaska Native"/>
                    </extension>
                </extension>
                <extension url="http://hl7.org/fhir/us/core/StructureDefinition/us-core-ethnicity">
                    <extension url="ombCategory">
                        <valueCoding>
                            <system value="urn:oid:2.16.840.1.113883.6.238"/>
                            <code value="2186-5"/>
                            <display value="Not Hispanic or Latino"/>
                        </valueCoding>
                    </extension>
                    <extension url="text">
                        <valueString value="Not Hispanic or Latino"/>
                    </extension>
                </extension>
                <identifier>
                    <use value="usual"/>
                    <type>
                        <coding>
                            <system value="http://terminology.hl7.org/CodeSystem/v2-0203"/>
                            <code value="SS"/>
                            <display value="Social Security number"/>
                        </coding>
                    </type>
                    <system value="http://hl7.org/fhir/sid/us-ssn"/>
                    <value value="132225986"/>
                </identifier>
                <active value="true"/>
                <patient>
                    <reference value="Patient/patient-child-babyg-quinn"/>
                </patient>
                <relationship>
                    <coding>
                        <system value="http://terminology.hl7.org/CodeSystem/v3-RoleCode"/>
                        <code value="GESTM"/>
                        <display value="gestational mother"/>
                    </coding>
                    <text value="Gestational Mother"/>
                </relationship>
                <name>
                    <use value="official"/>
                    <family value="Quinn"/>
                    <given value="Jada"/>
                    <given value="Ann"/>
                </name>
                <telecom>
                    <system value="phone"/>
                    <value value="1-(404)555-1212"/>
                    <use value="home"/>
                </telecom>
                <telecom>
                    <system value="email"/>
                    <value value="jadaann.quinn@example.com"/>
                </telecom>
                <gender value="female"/>
                <birthDate value="1985-01-15"/>
                <address>
                    <use value="home"/>
                    <line value="1875 West Morton Avenue"/>
                    <city value="Salt Lake City"/>
                    <district value="Salt Lake"/>
                    <state value="UT"/>
                    <postalCode value="84116"/>
                    <country value="US"/>
                </address>
            </RelatedPerson>
        </resource>
    </entry>
</Bundle>