<?xml version="1.0" encoding="UTF-8"?>
<Bundle
    xmlns="http://hl7.org/fhir">
    <id value="bundle-jurisdiction-fetal-death-not-named"/>
    <meta>
        <versionId value="42"/>
        <lastUpdated value="2023-06-26T06:22:45.406Z"/>
        <profile value="http://hl7.org/fhir/us/bfdr/StructureDefinition/Bundle-document-bfdr"/>
    </meta>
    <identifier>
        <system value="urn:ietf:rfc:3986"/>
        <value value="urn:uuid:9eeb1854-dee1-470a-9534-5cb25e18a323"/>
    </identifier>
    <type value="document"/>
    <timestamp value="2019-10-15T08:51:14.637+00:00"/>
    <entry>
        <fullUrl value="http://example.org/fhir/Composition/composition-jurisdiction-fetal-death-not-named"/>
        <resource>
            <Composition>
                <id value="composition-jurisdiction-fetal-death-not-named"/>
                <meta>
                    <profile value="http://hl7.org/fhir/us/bfdr/StructureDefinition/Composition-jurisdiction-fetal-death-report"/>
                </meta>
                <extension url="http://hl7.org/fhir/us/bfdr/StructureDefinition/Extension-fetal-death-report-number">
                    <valueIdentifier>
                        <type>
                            <coding>
                                <system value="http://terminology.hl7.org/CodeSystem/v2-0203"/>
                                <code value="FDR"/>
                            </coding>
                        </type>
                        <value value="9876"/>
                    </valueIdentifier>
                </extension>
                <extension url="http://hl7.org/fhir/us/bfdr/StructureDefinition/Extension-fetal-death-local-file-number">
                    <valueIdentifier>
                        <type>
                            <coding>
                                <system value="http://terminology.hl7.org/CodeSystem/v2-0203"/>
                                <code value="FDRFN"/>
                            </coding>
                        </type>
                        <value value="11111-11111"/>
                    </valueIdentifier>
                </extension>
                <extension url="http://hl7.org/fhir/us/bfdr/StructureDefinition/Extension-date-received-by-registrar">
                    <valueDateTime value="2019-02-12"/>
                </extension>
                <extension url="http://hl7.org/fhir/us/bfdr/StructureDefinition/Extension-replacement-status">
                    <valueCodeableConcept>
                        <coding>
                            <system value="http://hl7.org/fhir/us/bfdr/CodeSystem/CodeSystem-replacement-status"/>
                            <code value="original"/>
                        </coding>
                    </valueCodeableConcept>
                </extension>
                <identifier>
                    <value value="c03eab8c-11e8-4d0c-ad2a-b385395e27da"/>
                </identifier>
                <status value="final"/>
                <type>
                    <coding>
                        <system value="http://loinc.org"/>
                        <code value="92010-8"/>
                        <display value="Jurisdiction fetal death report Document"/>
                    </coding>
                </type>
                <subject>
                    <reference value="Patient/patient-decedent-fetus-not-named"/>
                    <display value="Patient - Decedent Fetus (Fetus Not Named)"/>
                </subject>
                <encounter>
                    <reference value="Encounter/encounter-maternity-carmen-teresa-lee"/>
                    <display value="Encounter - Maternity (Carmen Teresa Lee)"/>
                </encounter>
                <date value="2019-01-09"/>
                <author>
                    <reference value="Organization/organization-jurisdictional-vital-records-office"/>
                    <display value="Jurisdictional Vital Records Office"/>
                </author>
                <title value="Jurisdiction fetal death report Document"/>
                <section>
                    <title value="Mother (prenatal) Section on the Fetal Death Report"/>
                    <code>
                        <coding>
                            <system value="http://loinc.org"/>
                            <code value="57073-9"/>
                            <display value="Prenatal records"/>
                        </coding>
                    </code>
                    <focus>
                        <reference value="Patient/patient-mother-carmen-teresa-lee"/>
                        <display value="Patient - Mother (Carmen Teresa Lee)"/>
                    </focus>
                    <entry>
                        <reference value="Observation/observation-planned-to-deliver-at-home-not-named"/>
                        <display value="Observation - Planned to Deliver at Home (Carmen Teresa Lee)"/>
                    </entry>
                    <entry>
                        <reference value="Observation/observation-date-of-first-prenatal-care-visit-carmen-teresa-lee"/>
                        <display value="Observation - Date of First Prenatal Care Visit (Carmen Teresa Lee)"/>
                    </entry>
                    <entry>
                        <reference value="Observation/observation-last-menstrual-period-carmen-teresa-lee"/>
                        <display value="Observation - Last Menstrual Period (Carmen Teresa Lee)"/>
                    </entry>
                    <entry>
                        <reference value="Observation/observation-number-births-now-living-carmen-teresa-lee"/>
                        <display value="Observation - Number Births Now Living (Carmen Teresa Lee)"/>
                    </entry>
                    <entry>
                        <reference value="Observation/observation-number-births-now-dead-carmen-teresa-lee"/>
                        <display value="Observation - Number Births Now Dead (Carmen Teresa Lee)"/>
                    </entry>
                    <entry>
                        <reference value="Observation/observation-date-of-last-live-birth-carmen-teresa-lee"/>
                        <display value="Observation - Date of Last Live Birth (Carmen Teresa Lee)"/>
                    </entry>
                    <entry>
                        <reference value="Observation/observation-mother-height-carmen-teresa-lee"/>
                        <display value="Observation - Mother Height (Carmen Teresa Lee)"/>
                    </entry>
                    <entry>
                        <reference value="Observation/observation-mother-prepregnancy-weight-carmen-teresa-lee"/>
                        <display value="Observation - Mother Prepregnancy Weight (Carmen Teresa Lee)"/>
                    </entry>
                    <entry>
                        <reference value="Observation/observation-mother-received-wic-food-carmen-teresa-lee"/>
                        <display value="Observation - Mother Received WIC Food (Carmen Teresa Lee)"/>
                    </entry>
                    <entry>
                        <reference value="Observation/observation-cig-smoking-pregnancy-1-carmen-teresa-lee"/>
                        <display value="Observation - Cigarette Smoking Before/During Pregnancy (3 months prior: Carmen Teresa Lee)"/>
                    </entry>
                    <entry>
                        <reference value="Observation/observation-cig-smoking-pregnancy-2-carmen-teresa-lee"/>
                        <display value="Observation - Cigarette Smoking Before/During Pregnancy (first 3 months: Carmen Teresa Lee)"/>
                    </entry>
                    <entry>
                        <reference value="Observation/observation-cig-smoking-pregnancy-3-carmen-teresa-lee"/>
                        <display value="Observation - Cigarette Smoking Before/During Pregnancy (last 3 months: Carmen Teresa Lee)"/>
                    </entry>
                    <entry>
                        <reference value="Observation/observation-cig-smoking-pregnancy-4-carmen-teresa-lee"/>
                        <display value="Observation - Cigarette Smoking Before/During Pregnancy (second 3 months: Carmen Teresa Lee)"/>
                    </entry>
                </section>
                <section>
                    <title value="Medical and Health Information on the Fetal Death Report"/>
                    <code>
                        <coding>
                            <system value="http://loinc.org"/>
                            <code value="55752-0"/>
                            <display value="Clinical information"/>
                        </coding>
                    </code>
                    <focus>
                        <reference value="Patient/patient-mother-carmen-teresa-lee"/>
                        <display value="Patient - Mother (Carmen Teresa Lee)"/>
                    </focus>
                    <entry>
                        <reference value="Observation/observation-number-previous-cesareans-carmen-teresa-lee"/>
                        <display value="Observation - Number Previous Cesareans (Carmen Teresa Lee)"/>
                    </entry>
                    <entry>
                        <reference value="Observation/observation-fetal-presentation-not-named"/>
                        <display value="Observation - Fetal Presentation (Fetus Not Named)"/>
                    </entry>
                    <entry>
                        <reference value="Procedure/procedure-final-route-method-delivery-not-named"/>
                        <display value="Procedure - Final Route and Method of Delivery (Fetus Not Named)"/>
                    </entry>
                </section>
                <section>
                    <title value="Fetal delivery information section on the Fetal Death Report"/>
                    <code>
                        <coding>
                            <system value="http://loinc.org"/>
                            <code value="76400-1"/>
                            <display value="Fetal delivery information Document [US Standard Report of Fetal Death]"/>
                        </coding>
                    </code>
                    <entry>
                        <reference value="Observation/observation-birth-weight-not-named"/>
                        <display value="Observation - Birth Weight (Fetus Not Named)"/>
                    </entry>
                    <entry>
                        <reference value="Observation/observation-gestational-age-at-delivery-not-named"/>
                        <display value="Observation - Gestational Age at Delivery (Fetus Not Named)"/>
                    </entry>
                    <entry>
                        <reference value="Condition/condition-fetal-death-cause-or-condition-not-named"/>
                        <display value="Condition - Fetal Death Cause or Condition (Fetus Not Named)"/>
                    </entry>
                    <entry>
                        <reference value="Condition/condition-fetal-death-other-significant-cause-not-named"/>
                        <display value="Example of Condition-fetal-death-other-significant-cause profile (Fetus Not Named)"/>
                    </entry>
                    <entry>
                        <reference value="Observation/observation-fetal-death-time-point-not-named"/>
                        <display value="Example of Observation-estimated-fetal-death-time-point profile (Fetus Not Named)"/>
                    </entry>
                    <entry>
                        <reference value="Observation/observation-autopsy-performed-not-named"/>
                        <display value="Example of Observation-autopsy-performed profile (Fetus Not Named)"/>
                    </entry>
                    <entry>
                        <reference value="Observation/observation-histological-placental-exam-performed-not-named"/>
                        <display value="Observation - Histological Placental Exam Performed (Fetus Not Named)"/>
                    </entry>
                    <entry>
                        <reference value="Observation/observation-autopsy-histological-exam-results-used-not-named"/>
                        <display value="Observation - Autopsy or Histological Exam Results Used"/>
                    </entry>
                    <entry>
                        <reference value="Observation/observation-plurality-carmen-teresa-lee"/>
                        <display value="Observation - Plurality (Carmen Teresa Lee)"/>
                    </entry>
                </section>
                <section>
                    <title value="Mother Administrative Section on the Fetal Death Report"/>
                    <code>
                        <coding>
                            <system value="http://loinc.org"/>
                            <code value="92014-0"/>
                            <display value="Mother's administrative information"/>
                        </coding>
                    </code>
                    <focus>
                        <reference value="Patient/patient-mother-carmen-teresa-lee"/>
                        <display value="Patient - Mother (Carmen Teresa Lee)"/>
                    </focus>
                    <entry>
                        <reference value="Observation/observation-parent-education-level-carmen-teresa-lee"/>
                        <display value="Observation - Parent Education Level (Carmen Teresa Lee)"/>
                    </entry>
                </section>
                <section>
                    <title value="Edit Flags Section"/>
                    <code>
                        <coding>
                            <system value="http://loinc.org"/>
                            <code value="92012-4"/>
                            <display value="Edit flags section"/>
                        </coding>
                    </code>
                    <entry>
                        <reference value="Observation/observation-edit-flag-delivery-wgt-not-named"/>
                        <display value="Observation - Edit flag birthweight"/>
                    </entry>
                    <entry>
                        <reference value="Observation/observation-edit-flag-est-gestation-not-named"/>
                        <display value="Observation - Edit flag estimate of gestation"/>
                    </entry>
                    <entry>
                        <reference value="Observation/observation-edit-flag-mothers-dob-not-named"/>
                        <display value="Observation - Edit flag mother's date of birth"/>
                    </entry>
                    <entry>
                        <reference value="Observation/observation-edit-flag-mothers-education-not-named"/>
                        <display value="Observation - Edit flag mother's education"/>
                    </entry>
                    <entry>
                        <reference value="Observation/observation-edit-flag-mothers-height-not-named"/>
                        <display value="Observation - Edit flag mother's height"/>
                    </entry>
                    <entry>
                        <reference value="Observation/observation-edit-flag-mothers-prepreg-wgt-not-named"/>
                        <display value="Observation - Edit flag mother's prepregnancy weight"/>
                    </entry>
                    <entry>
                        <reference value="Observation/observation-edit-flag-nbr-previous-cesareans-not-named"/>
                        <display value="Observation - Edit flag number previous cesareans"/>
                    </entry>
                    <entry>
                        <reference value="Observation/observation-edit-flag-plurality-not-named"/>
                        <display value="Observation - Edit flag plurality"/>
                    </entry>
                </section>
            </Composition>
        </resource>
    </entry>
    <entry>
        <fullUrl value="http://example.org/fhir/Patient/patient-decedent-fetus-not-named"/>
        <resource>
            <Patient>
                <id value="patient-decedent-fetus-not-named"/>
                <meta>
                    <profile value="http://hl7.org/fhir/us/vr-common-library/StructureDefinition/Patient-decedent-fetus-vr"/>
                </meta>
                <extension url="http://hl7.org/fhir/us/core/StructureDefinition/us-core-birthsex">
                    <valueCode value="F"/>
                </extension>
                <extension url="http://hl7.org/fhir/StructureDefinition/patient-birthPlace">
                    <valueAddress>
                        <city value="Ann Arbor"/>
                        <state value="MI"/>
                        <postalCode value="48103"/>
                    </valueAddress>
                </extension>
                <extension url="http://hl7.org/fhir/us/vr-common-library/StructureDefinition/Extension-patient-fetal-death-vr">
                    <valueCoding>
                        <system value="http://snomed.info/sct"/>
                        <code value="276507005"/>
                        <display value="Fetal death (event)"/>
                    </valueCoding>
                </extension>
                <identifier>
                    <use value="usual"/>
                    <type>
                        <coding>
                            <system value="http://terminology.hl7.org/CodeSystem/v2-0203"/>
                            <code value="MR"/>
                            <display value="Medical Record Number"/>
                        </coding>
                    </type>
                    <system value="http://hospital.smarthealthit.org"/>
                    <value value="9932702"/>
                </identifier>
                <name>
                    <family value="UNK">
                        <extension url="http://hl7.org/fhir/StructureDefinition/data-absent-reason">
                            <valueCode value="not-applicable"/>
                        </extension>
                    </family>
                </name>
                <gender value="female"/>
                <birthDate value="2019-01-09">
                    <extension url="http://hl7.org/fhir/StructureDefinition/patient-birthTime">
                        <valueDateTime value="2019-01-09T18:23:00-07:00"/>
                    </extension>
                </birthDate>
                <deceasedBoolean value="true"/>
            </Patient>
        </resource>
    </entry>
    <entry>
        <fullUrl value="http://example.org/fhir/Encounter/encounter-maternity-carmen-teresa-lee"/>
        <resource>
            <Encounter>
                <id value="encounter-maternity-carmen-teresa-lee"/>
                <meta>
                    <profile value="http://hl7.org/fhir/us/bfdr/StructureDefinition/Encounter-maternity"/>
                </meta>
                <identifier>
                    <system value="http://hospital.smarthealthit.org"/>
                    <value value="8937015"/>
                </identifier>
                <status value="finished"/>
                <class>
                    <system value="http://terminology.hl7.org/CodeSystem/v3-ActCode"/>
                    <code value="IMP"/>
                    <display value="inpatient encounter"/>
                </class>
                <type>
                    <coding>
                        <system value="http://www.ama-assn.org/go/cpt"/>
                        <code value="99234"/>
                    </coding>
                    <text value="Under Observation or Inpatient Care Services (Including Admission and Discharge Services)"/>
                </type>
                <subject>
                    <reference value="Patient/patient-mother-carmen-teresa-lee"/>
                    <display value="Patient - Mother (Carmen Teresa Lee)"/>
                </subject>
                <participant>
                    <type>
                        <coding>
                            <system value="http://loinc.org"/>
                            <code value="87286-1"/>
                            <display value="Birth attendant [Extended Identifier]"/>
                        </coding>
                    </type>
                    <individual>
                        <reference value="Practitioner/practitioner-vital-records-janet-seito"/>
                        <display value="Practitioner - Vital Records (Janet Seito, MD)"/>
                    </individual>
                </participant>
                <period>
                    <start value="2019-01-08T10:00:00-07:00"/>
                    <end value="2019-01-09T17:00:00-07:00"/>
                </period>
                <location>
                    <location>
                        <reference value="Location/location-south-hospital"/>
                        <display value="Location - US Core Location (South Hospital)"/>
                    </location>
                    <physicalType>
                        <coding>
                            <system value="http://snomed.info/sct"/>
                            <code value="22232009"/>
                            <display value="Hospital"/>
                        </coding>
                    </physicalType>
                </location>
                <serviceProvider>
                    <reference value="Organization/organization-south-hospital"/>
                    <display value="Organization - US Core Organization (South Hospital Organization)"/>
                </serviceProvider>
            </Encounter>
        </resource>
    </entry>
    <entry>
        <fullUrl value="http://example.org/fhir/Organization/organization-jurisdictional-vital-records-office"/>
        <resource>
            <Organization>
                <id value="organization-jurisdictional-vital-records-office"/>
                <active value="true"/>
                <name value="Jurisdictional Vital Records Office"/>
            </Organization>
        </resource>
    </entry>
    <entry>
        <fullUrl value="http://example.org/fhir/Patient/patient-mother-carmen-teresa-lee"/>
        <resource>
            <Patient>
                <id value="patient-mother-carmen-teresa-lee"/>
                <meta>
                    <profile value="http://hl7.org/fhir/us/vr-common-library/StructureDefinition/Patient-mother-vr"/>
                </meta>
                <extension url="http://hl7.org/fhir/us/core/StructureDefinition/us-core-race">
                    <extension url="ombCategory">
                        <valueCoding>
                            <system value="urn:oid:2.16.840.1.113883.6.238"/>
                            <code value="2054-5"/>
                            <display value="Black or African American"/>
                        </valueCoding>
                    </extension>
                    <extension url="text">
                        <valueString value="Black or African America"/>
                    </extension>
                </extension>
                <extension url="http://hl7.org/fhir/us/core/StructureDefinition/us-core-ethnicity">
                    <extension url="ombCategory">
                        <valueCoding>
                            <system value="urn:oid:2.16.840.1.113883.6.238"/>
                            <code value="2135-2"/>
                            <display value="Hispanic or Latino"/>
                        </valueCoding>
                    </extension>
                    <extension url="text">
                        <valueString value="Hispanic or Latino"/>
                    </extension>
                </extension>
                <extension url="http://hl7.org/fhir/us/core/StructureDefinition/us-core-birthsex">
                    <valueCode value="F"/>
                </extension>
                <extension url="http://hl7.org/fhir/StructureDefinition/patient-birthPlace">
                    <valueAddress>
                        <state value="PR"/>
                    </valueAddress>
                </extension>
                <identifier>
                    <use value="usual"/>
                    <type>
                        <coding>
                            <system value="http://terminology.hl7.org/CodeSystem/v2-0203"/>
                            <code value="MR"/>
                            <display value="Medical Record Number"/>
                        </coding>
                    </type>
                    <system value="http://hospital.smarthealthit.org"/>
                    <value value="9992702"/>
                </identifier>
                <name>
                    <use value="official"/>
                    <family value="Lee"/>
                    <given value="Carmen"/>
                    <given value="Teresa"/>
                </name>
                <name>
                    <use value="maiden"/>
                    <family value="Santos"/>
                    <given value="Carmen"/>
                    <given value="Teresa"/>
                </name>
                <gender value="female"/>
                <birthDate value="1986-02-15"/>
                <address>
                    <extension url="http://hl7.org/fhir/us/vr-common-library/StructureDefinition/Extension-within-city-limits-indicator-vr">
                        <valueCoding>
                            <system value="http://terminology.hl7.org/CodeSystem/v2-0532"/>
                            <code value="N"/>
                            <display value="No"/>
                        </valueCoding>
                    </extension>
                    <use value="home"/>
                    <line value="3670 Miller Road"/>
                    <city value="Ann Arbor"/>
                    <state value="MI"/>
                    <postalCode value="48103"/>
                    <country value="US"/>
                </address>
            </Patient>
        </resource>
    </entry>
    <entry>
        <fullUrl value="http://example.org/fhir/Observation/observation-planned-to-deliver-at-home-not-named"/>
        <resource>
            <Observation>
                <id value="observation-planned-to-deliver-at-home-not-named"/>
                <meta>
                    <profile value="http://hl7.org/fhir/us/bfdr/StructureDefinition/Observation-planned-to-deliver-at-home"/>
                </meta>
                <status value="final"/>
                <code>
                    <coding>
                        <system value="http://loinc.org"/>
                        <code value="73765-0"/>
                        <display value="Mother Planned to deliver at home [US Standard Certificate of Live Birth]"/>
                    </coding>
                    <text value="Planned to deliver at home?"/>
                </code>
                <subject>
                    <reference value="Patient/patient-decedent-fetus-not-named"/>
                    <display value="Patient - Decedent Fetus (Fetus Not Named)"/>
                </subject>
                <focus>
                    <reference value="Patient/patient-mother-carmen-teresa-lee"/>
                    <display value="Patient - Mother (Carmen Teresa Lee)"/>
                </focus>
                <valueBoolean value="false"/>
            </Observation>
        </resource>
    </entry>
    <entry>
        <fullUrl value="http://example.org/fhir/Observation/observation-date-of-first-prenatal-care-visit-carmen-teresa-lee"/>
        <resource>
            <Observation>
                <id value="observation-date-of-first-prenatal-care-visit-carmen-teresa-lee"/>
                <meta>
                    <profile value="http://hl7.org/fhir/us/bfdr/StructureDefinition/Observation-date-of-first-prenatal-care-visit"/>
                </meta>
                <status value="final"/>
                <code>
                    <coding>
                        <system value="http://loinc.org"/>
                        <code value="69044-6"/>
                        <display value="Date first prenatal visit"/>
                    </coding>
                    <text value="Date of first prenatal care visit"/>
                </code>
                <subject>
                    <reference value="Patient/patient-decedent-fetus-not-named"/>
                    <display value="Patient - Decedent Fetus (Fetus Not Named)"/>
                </subject>
                <focus>
                    <reference value="Patient/patient-mother-carmen-teresa-lee"/>
                    <display value="Patient - Mother (Carmen Teresa Lee)"/>
                </focus>
                <valueDateTime value="2018-05-18"/>
            </Observation>
        </resource>
    </entry>
    <entry>
        <fullUrl value="http://example.org/fhir/Observation/observation-last-menstrual-period-carmen-teresa-lee"/>
        <resource>
            <Observation>
                <id value="observation-last-menstrual-period-carmen-teresa-lee"/>
                <meta>
                    <profile value="http://hl7.org/fhir/us/vr-common-library/StructureDefinition/Observation-last-menstrual-period-vr"/>
                </meta>
                <status value="final"/>
                <code>
                    <coding>
                        <system value="http://loinc.org"/>
                        <code value="8665-2"/>
                        <display value="Last menstrual period start date"/>
                    </coding>
                    <text value="Last menstrual period start date"/>
                </code>
                <subject>
                    <reference value="Patient/patient-mother-carmen-teresa-lee"/>
                    <display value="Patient - Mother (Carmen Teresa Lee)"/>
                </subject>
                <valueDateTime value="2018-04-18"/>
            </Observation>
        </resource>
    </entry>
    <entry>
        <fullUrl value="http://example.org/fhir/Observation/observation-number-births-now-living-carmen-teresa-lee"/>
        <resource>
            <Observation>
                <id value="observation-number-births-now-living-carmen-teresa-lee"/>
                <meta>
                    <profile value="http://hl7.org/fhir/us/vr-common-library/StructureDefinition/Observation-number-births-now-living-vr"/>
                </meta>
                <status value="final"/>
                <code>
                    <coding>
                        <system value="http://loinc.org"/>
                        <code value="11638-4"/>
                        <display value="[#] Births.still living"/>
                    </coding>
                    <text value="[#] Births.still living"/>
                </code>
                <subject>
                    <reference value="Patient/patient-mother-carmen-teresa-lee"/>
                    <display value="Patient - Mother (Carmen Teresa Lee)"/>
                </subject>
                <valueInteger value="1"/>
            </Observation>
        </resource>
    </entry>
    <entry>
        <fullUrl value="http://example.org/fhir/Observation/observation-number-births-now-dead-carmen-teresa-lee"/>
        <resource>
            <Observation>
                <id value="observation-number-births-now-dead-carmen-teresa-lee"/>
                <meta>
                    <profile value="http://hl7.org/fhir/us/vr-common-library/StructureDefinition/Observation-number-births-now-dead-vr"/>
                </meta>
                <status value="final"/>
                <code>
                    <coding>
                        <system value="http://loinc.org"/>
                        <code value="68496-9"/>
                        <display value="Previous live births now dead #"/>
                    </coding>
                    <text value="Previous live births now dead #"/>
                </code>
                <subject>
                    <reference value="Patient/patient-mother-carmen-teresa-lee"/>
                    <display value="Patient - Mother (Carmen Teresa Lee)"/>
                </subject>
                <valueInteger value="0"/>
            </Observation>
        </resource>
    </entry>
    <entry>
        <fullUrl value="http://example.org/fhir/Observation/observation-date-of-last-live-birth-carmen-teresa-lee"/>
        <resource>
            <Observation>
                <id value="observation-date-of-last-live-birth-carmen-teresa-lee"/>
                <meta>
                    <profile value="http://hl7.org/fhir/us/bfdr/StructureDefinition/Observation-date-of-last-live-birth"/>
                </meta>
                <status value="final"/>
                <code>
                    <coding>
                        <system value="http://loinc.org"/>
                        <code value="68499-3"/>
                        <display value="Date last live birth"/>
                    </coding>
                    <text value="Date of last live birth"/>
                </code>
                <subject>
                    <reference value="Patient/patient-decedent-fetus-not-named"/>
                    <display value="Patient - Decedent Fetus (Fetus Not Named)"/>
                </subject>
                <focus>
                    <reference value="Patient/patient-mother-carmen-teresa-lee"/>
                    <display value="Patient - Mother (Carmen Teresa Lee)"/>
                </focus>
                <valueDateTime value="2016-01-28"/>
            </Observation>
        </resource>
    </entry>
    <entry>
        <fullUrl value="http://example.org/fhir/Observation/observation-mother-height-carmen-teresa-lee"/>
        <resource>
            <Observation>
                <id value="observation-mother-height-carmen-teresa-lee"/>
                <meta>
                    <profile value="http://hl7.org/fhir/us/vr-common-library/StructureDefinition/Observation-mother-height-vr"/>
                </meta>
                <status value="final"/>
                <category>
                    <coding>
                        <system value="http://terminology.hl7.org/CodeSystem/observation-category"/>
                        <code value="vital-signs"/>
                        <display value="Vital Signs"/>
                    </coding>
                    <text value="Vital Signs"/>
                </category>
                <code>
                    <coding>
                        <system value="http://loinc.org"/>
                        <code value="3137-7"/>
                        <display value="Body height Measured"/>
                    </coding>
                </code>
                <subject>
                    <reference value="Patient/patient-mother-carmen-teresa-lee"/>
                    <display value="Patient - Mother (Carmen Teresa Lee)"/>
                </subject>
                <effectiveDateTime value="2019-01-10"/>
                <valueQuantity>
                    <value value="65"/>
                    <system value="http://unitsofmeasure.org"/>
                    <code value="[in_i]"/>
                </valueQuantity>
            </Observation>
        </resource>
    </entry>
    <entry>
        <fullUrl value="http://example.org/fhir/Observation/observation-mother-prepregnancy-weight-carmen-teresa-lee"/>
        <resource>
            <Observation>
                <id value="observation-mother-prepregnancy-weight-carmen-teresa-lee"/>
                <meta>
                    <profile value="http://hl7.org/fhir/us/vr-common-library/StructureDefinition/Observation-mother-prepregnancy-weight-vr"/>
                </meta>
                <status value="final"/>
                <category>
                    <coding>
                        <system value="http://terminology.hl7.org/CodeSystem/observation-category"/>
                        <code value="vital-signs"/>
                        <display value="Vital Signs"/>
                    </coding>
                    <text value="Vital Signs"/>
                </category>
                <code>
                    <coding>
                        <system value="http://loinc.org"/>
                        <code value="56077-1"/>
                        <display value="Body weight --pre current pregnancy"/>
                    </coding>
                </code>
                <subject>
                    <reference value="Patient/patient-mother-carmen-teresa-lee"/>
                    <display value="Patient - Mother (Carmen Teresa Lee)"/>
                </subject>
                <effectiveDateTime value="2019-05-20"/>
                <valueQuantity>
                    <value value="180"/>
                    <system value="http://unitsofmeasure.org"/>
                    <code value="[lb_av]"/>
                </valueQuantity>
            </Observation>
        </resource>
    </entry>
    <entry>
        <fullUrl value="http://example.org/fhir/Observation/observation-mother-received-wic-food-carmen-teresa-lee"/>
        <resource>
            <Observation>
                <id value="observation-mother-received-wic-food-carmen-teresa-lee"/>
                <meta>
                    <profile value="http://hl7.org/fhir/us/bfdr/StructureDefinition/Observation-mother-received-wic-food"/>
                </meta>
                <status value="final"/>
                <code>
                    <coding>
                        <system value="http://loinc.org"/>
                        <code value="87303-4"/>
                        <display value="Mother WIC food recipient"/>
                    </coding>
                    <text value="Did mother get WIC food for herself during this pregnancy?"/>
                </code>
                <subject>
                    <reference value="Patient/patient-decedent-fetus-not-named"/>
                    <display value="Patient - Decedent Fetus (Fetus Not Named)"/>
                </subject>
                <focus>
                    <reference value="Patient/patient-mother-carmen-teresa-lee"/>
                    <display value="Patient - Mother (Carmen Teresa Lee)"/>
                </focus>
                <valueCodeableConcept>
                    <coding>
                        <system value="http://terminology.hl7.org/CodeSystem/v2-0532"/>
                        <code value="N"/>
                        <display value="No"/>
                    </coding>
                </valueCodeableConcept>
            </Observation>
        </resource>
    </entry>
    <entry>
        <fullUrl value="http://example.org/fhir/Observation/observation-cig-smoking-pregnancy-1-carmen-teresa-lee"/>
        <resource>
            <Observation>
                <id value="observation-cig-smoking-pregnancy-1-carmen-teresa-lee"/>
                <meta>
                    <profile value="http://hl7.org/fhir/us/bfdr/StructureDefinition/Observation-cigarette-smoking-before-during-pregnancy"/>
                </meta>
                <status value="final"/>
                <code>
                    <coding>
                        <system value="http://loinc.org"/>
                        <code value="64794-1"/>
                        <display value="In the 3 months before you got pregnant, how many cigarettes did you smoke on an average day [PhenX]"/>
                    </coding>
                    <text value="In the 3 months before you got pregnant, how many cigarettes did you smoke on an average day [PhenX]"/>
                </code>
                <subject>
                    <reference value="Patient/patient-mother-carmen-teresa-lee"/>
                    <display value="Patient - Mother (Carmen Teresa Lee)"/>
                </subject>
                <focus>
                    <reference value="Patient/patient-decedent-fetus-not-named"/>
                    <display value="Patient - Decedent Fetus (Fetus Not Named)"/>
                </focus>
                <valueInteger value="0"/>
            </Observation>
        </resource>
    </entry>
    <entry>
        <fullUrl value="http://example.org/fhir/Observation/observation-cig-smoking-pregnancy-2-carmen-teresa-lee"/>
        <resource>
            <Observation>
                <id value="observation-cig-smoking-pregnancy-2-carmen-teresa-lee"/>
                <meta>
                    <profile value="http://hl7.org/fhir/us/bfdr/StructureDefinition/Observation-cigarette-smoking-before-during-pregnancy"/>
                </meta>
                <status value="final"/>
                <code>
                    <coding>
                        <system value="http://loinc.org"/>
                        <code value="87298-6"/>
                        <display value="Cigarettes smoked per day by Mother--1st trimester"/>
                    </coding>
                    <text value="Cigarettes smoked per day by Mother--1st trimester"/>
                </code>
                <subject>
                    <reference value="Patient/patient-mother-carmen-teresa-lee"/>
                    <display value="Patient - Mother (Carmen Teresa Lee)"/>
                </subject>
                <focus>
                    <reference value="Patient/patient-decedent-fetus-not-named"/>
                    <display value="Patient - Decedent Fetus (Fetus Not Named)"/>
                </focus>
                <valueInteger value="0"/>
            </Observation>
        </resource>
    </entry>
    <entry>
        <fullUrl value="http://example.org/fhir/Observation/observation-cig-smoking-pregnancy-3-carmen-teresa-lee"/>
        <resource>
            <Observation>
                <id value="observation-cig-smoking-pregnancy-3-carmen-teresa-lee"/>
                <meta>
                    <profile value="http://hl7.org/fhir/us/bfdr/StructureDefinition/Observation-cigarette-smoking-before-during-pregnancy"/>
                </meta>
                <status value="final"/>
                <code>
                    <coding>
                        <system value="http://loinc.org"/>
                        <code value="87299-4"/>
                        <display value="Cigarettes smoked per day by Mother--2nd trimester"/>
                    </coding>
                    <text value="Cigarettes smoked per day by Mother--2nd trimester"/>
                </code>
                <subject>
                    <reference value="Patient/patient-mother-carmen-teresa-lee"/>
                    <display value="Patient - Mother (Carmen Teresa Lee)"/>
                </subject>
                <focus>
                    <reference value="Patient/patient-decedent-fetus-not-named"/>
                    <display value="Patient - Decedent Fetus (Fetus Not Named)"/>
                </focus>
                <valueInteger value="1"/>
            </Observation>
        </resource>
    </entry>
    <entry>
        <fullUrl value="http://example.org/fhir/Observation/observation-cig-smoking-pregnancy-4-carmen-teresa-lee"/>
        <resource>
            <Observation>
                <id value="observation-cig-smoking-pregnancy-4-carmen-teresa-lee"/>
                <meta>
                    <profile value="http://hl7.org/fhir/us/bfdr/StructureDefinition/Observation-cigarette-smoking-before-during-pregnancy"/>
                </meta>
                <status value="final"/>
                <code>
                    <coding>
                        <system value="http://loinc.org"/>
                        <code value="64795-8"/>
                        <display value="In the last 3 months of your pregnancy, how many cigarettes did you smoke on an average day [PhenX]"/>
                    </coding>
                    <text value="In the last 3 months of your pregnancy, how many cigarettes did you smoke on an average day [PhenX]"/>
                </code>
                <subject>
                    <reference value="Patient/patient-mother-carmen-teresa-lee"/>
                    <display value="Patient - Mother (Carmen Teresa Lee)"/>
                </subject>
                <focus>
                    <reference value="Patient/patient-decedent-fetus-not-named"/>
                    <display value="Patient - Decedent Fetus (Fetus Not Named)"/>
                </focus>
                <valueInteger value="0"/>
            </Observation>
        </resource>
    </entry>
    <entry>
        <fullUrl value="http://example.org/fhir/Observation/observation-number-previous-cesareans-carmen-teresa-lee"/>
        <resource>
            <Observation>
                <id value="observation-number-previous-cesareans-carmen-teresa-lee"/>
                <meta>
                    <profile value="http://hl7.org/fhir/us/vr-common-library/StructureDefinition/Observation-number-previous-cesareans-vr"/>
                </meta>
                <status value="final"/>
                <code>
                    <coding>
                        <system value="http://loinc.org"/>
                        <code value="68497-7"/>
                        <display value="Previous cesarean deliveries #"/>
                    </coding>
                    <text value="Previous cesarean deliveries #"/>
                </code>
                <subject>
                    <reference value="Patient/patient-mother-carmen-teresa-lee"/>
                    <display value="Patient - Mother (Carmen Teresa Lee)"/>
                </subject>
                <valueInteger value="1"/>
            </Observation>
        </resource>
    </entry>
    <entry>
        <fullUrl value="http://example.org/fhir/Observation/observation-fetal-presentation-not-named"/>
        <resource>
            <Observation>
                <id value="observation-fetal-presentation-not-named"/>
                <meta>
                    <profile value="http://hl7.org/fhir/us/bfdr/StructureDefinition/Observation-fetal-presentation"/>
                </meta>
                <status value="final"/>
                <code>
                    <coding>
                        <system value="http://loinc.org"/>
                        <code value="73761-9"/>
                        <display value="Fetal presentation--at birth [US Standard Certificate of Live Birth]"/>
                    </coding>
                </code>
                <subject>
                    <reference value="Patient/patient-decedent-fetus-not-named"/>
                    <display value="Patient - Decedent Fetus (Fetus Not Named)"/>
                </subject>
                <valueCodeableConcept>
                    <coding>
                        <system value="http://snomed.info/sct"/>
                        <code value="6096002"/>
                        <display value="Breech presentation (finding)"/>
                    </coding>
                </valueCodeableConcept>
            </Observation>
        </resource>
    </entry>
    <entry>
        <fullUrl value="http://example.org/fhir/Procedure/procedure-final-route-method-delivery-not-named"/>
        <resource>
            <Procedure>
                <id value="procedure-final-route-method-delivery-not-named"/>
                <meta>
                    <profile value="http://hl7.org/fhir/us/bfdr/StructureDefinition/Procedure-final-route-method-delivery"/>
                </meta>
                <status value="completed"/>
                <code>
                    <coding>
                        <system value="http://snomed.info/sct"/>
                        <code value="48782003"/>
                        <display value="Delivery normal (finding)"/>
                    </coding>
                    <text value="Spontaneous vaginal delivery"/>
                </code>
                <subject>
                    <reference value="Patient/patient-mother-carmen-teresa-lee"/>
                    <display value="Patient - Mother (Carmen Teresa Lee)"/>
                </subject>
                <performedPeriod>
                    <start value="2019-01-19T18:00:00-07:00"/>
                    <end value="2019-01-19T18:23:00-07:00"/>
                </performedPeriod>
            </Procedure>
        </resource>
    </entry>
    <entry>
        <fullUrl value="http://example.org/fhir/Observation/observation-birth-weight-not-named"/>
        <resource>
            <Observation>
                <id value="observation-birth-weight-not-named"/>
                <status value="final"/>
                <category>
                    <coding>
                        <system value="http://terminology.hl7.org/CodeSystem/observation-category"/>
                        <code value="vital-signs"/>
                        <display value="Vital Signs"/>
                    </coding>
                    <text value="Vital Signs"/>
                </category>
                <code>
                    <coding>
                        <system value="http://loinc.org"/>
                        <code value="8339-4"/>
                        <display value="Birth weight Measured"/>
                    </coding>
                </code>
                <subject>
                    <reference value="Patient/patient-decedent-fetus-not-named"/>
                    <display value="Patient - Decedent Fetus (Fetus Not Named)"/>
                </subject>
                <effectiveDateTime value="2019-02-10"/>
                <valueQuantity>
                    <value value="1530"/>
                    <system value="http://unitsofmeasure.org"/>
                    <code value="g"/>
                </valueQuantity>
            </Observation>
        </resource>
    </entry>
    <entry>
        <fullUrl value="http://example.org/fhir/Observation/observation-gestational-age-at-delivery-not-named"/>
        <resource>
            <Observation>
                <id value="observation-gestational-age-at-delivery-not-named"/>
                <meta>
                    <profile value="http://hl7.org/fhir/us/vr-common-library/StructureDefinition/Observation-gestational-age-at-delivery-vr"/>
                </meta>
                <status value="final"/>
                <code>
                    <coding>
                        <system value="http://loinc.org"/>
                        <code value="11884-4"/>
                        <display value="Gestational age Estimated"/>
                    </coding>
                </code>
                <subject>
                    <reference value="Patient/patient-decedent-fetus-not-named"/>
                    <display value="Patient - Decedent Fetus (Fetus Not Named)"/>
                </subject>
                <valueQuantity>
                    <value value="20"/>
                    <system value="http://unitsofmeasure.org"/>
                    <code value="wk"/>
                </valueQuantity>
            </Observation>
        </resource>
    </entry>
    <entry>
        <fullUrl value="http://example.org/fhir/Condition/condition-fetal-death-cause-or-condition-not-named"/>
        <resource>
            <Condition>
                <id value="condition-fetal-death-cause-or-condition-not-named"/>
                <meta>
                    <profile value="http://hl7.org/fhir/us/bfdr/StructureDefinition/Condition-fetal-death-cause-or-condition"/>
                </meta>
                <category>
                    <coding>
                        <system value="http://terminology.hl7.org/CodeSystem/condition-category"/>
                        <code value="encounter-diagnosis"/>
                        <display value="Encounter Diagnosis"/>
                    </coding>
                </category>
                <category>
                    <coding>
                        <system value="http://loinc.org"/>
                        <code value="76060-3"/>
                        <display value="Initiating cause or condition of fetal death [US Standard Report of Fetal Death]"/>
                    </coding>
                </category>
                <code>
                    <coding>
                        <system value="http://snomed.info/sct"/>
                        <code value="44223004"/>
                        <display value="Premature rupture of membranes (disorder)"/>
                    </coding>
                    <text value="Premature rupture of membranes (disorder)"/>
                </code>
                <subject>
                    <reference value="Patient/patient-decedent-fetus-not-named"/>
                    <display value="Patient - Decedent Fetus (Fetus Not Named)"/>
                </subject>
            </Condition>
        </resource>
    </entry>
    <entry>
        <fullUrl value="http://example.org/fhir/Condition/condition-fetal-death-other-significant-cause-not-named"/>
        <resource>
            <Condition>
                <id value="condition-fetal-death-other-significant-cause-not-named"/>
                <meta>
                    <profile value="http://hl7.org/fhir/us/bfdr/StructureDefinition/Condition-fetal-death-other-cause-or-condition"/>
                </meta>
                <category>
                    <coding>
                        <system value="http://terminology.hl7.org/CodeSystem/condition-category"/>
                        <code value="encounter-diagnosis"/>
                        <display value="Encounter Diagnosis"/>
                    </coding>
                </category>
                <category>
                    <coding>
                        <system value="http://loinc.org"/>
                        <code value="76061-1"/>
                        <display value="Other significant causes or conditions of fetal death [US Standard Report of Fetal Death]"/>
                    </coding>
                </category>
                <code>
                    <coding>
                        <system value="http://snomed.info/sct"/>
                        <code value="237292005"/>
                        <display value="Placental insufficiency (disorder)"/>
                    </coding>
                    <text value="Placental insufficiency (disorder)"/>
                </code>
                <subject>
                    <reference value="Patient/patient-decedent-fetus-not-named"/>
                    <display value="Patient - Decedent Fetus (Fetus Not Named)"/>
                </subject>
            </Condition>
        </resource>
    </entry>
    <entry>
        <fullUrl value="http://example.org/fhir/Observation/observation-fetal-death-time-point-not-named"/>
        <resource>
            <Observation>
                <id value="observation-fetal-death-time-point-not-named"/>
                <meta>
                    <profile value="http://hl7.org/fhir/us/bfdr/StructureDefinition/Observation-estimated-fetal-death-time-point"/>
                </meta>
                <status value="final"/>
                <code>
                    <coding>
                        <system value="http://loinc.org"/>
                        <code value="73811-2"/>
                        <display value="Estimated timing of fetal death [US Standard Report of Fetal Death]"/>
                    </coding>
                </code>
                <subject>
                    <reference value="Patient/patient-decedent-fetus-not-named"/>
                    <display value="Patient - Decedent Fetus (Fetus Not Named)"/>
                </subject>
                <valueCodeableConcept>
                    <coding>
                        <system value="http://snomed.info/sct"/>
                        <code value="434631000124100"/>
                        <display value="Fetal intrapartum death after first assessment (event)"/>
                    </coding>
                </valueCodeableConcept>
            </Observation>
        </resource>
    </entry>
    <entry>
        <fullUrl value="http://example.org/fhir/Observation/observation-autopsy-performed-not-named"/>
        <resource>
            <Observation>
                <id value="observation-autopsy-performed-not-named"/>
                <meta>
                    <profile value="http://hl7.org/fhir/us/vr-common-library/StructureDefinition/Observation-autopsy-performed-indicator-vr"/>
                </meta>
                <status value="final"/>
                <code>
                    <coding>
                        <system value="http://loinc.org"/>
                        <code value="85699-7"/>
                        <display value="Autopsy was performed"/>
                    </coding>
                </code>
                <subject>
                    <reference value="Patient/patient-decedent-fetus-not-named"/>
                    <display value="Patient - Decedent Fetus (Fetus Not Named)"/>
                </subject>
                <valueCodeableConcept>
                    <coding>
                        <system value="http://snomed.info/sct"/>
                        <code value="716347009"/>
                        <display value="Autopsy performed (situation)"/>
                    </coding>
                </valueCodeableConcept>
            </Observation>
        </resource>
    </entry>
    <entry>
        <fullUrl value="http://example.org/fhir/Observation/observation-histological-placental-exam-performed-not-named"/>
        <resource>
            <Observation>
                <id value="observation-histological-placental-exam-performed-not-named"/>
                <meta>
                    <profile value="http://hl7.org/fhir/us/bfdr/StructureDefinition/Observation-histological-placental-exam-performed"/>
                </meta>
                <status value="final"/>
                <code>
                    <coding>
                        <system value="http://loinc.org"/>
                        <code value="73767-6"/>
                        <display value="Histological placental examination was performed [US Standard Report of Fetal Death]"/>
                    </coding>
                </code>
                <subject>
                    <reference value="Patient/patient-decedent-fetus-not-named"/>
                    <display value="Patient - Decedent Fetus (Fetus Not Named)"/>
                </subject>
                <valueCodeableConcept>
                    <coding>
                        <system value="http://snomed.info/sct"/>
                        <code value="398166005"/>
                        <display value="Performed"/>
                    </coding>
                </valueCodeableConcept>
            </Observation>
        </resource>
    </entry>
    <entry>
        <fullUrl value="http://example.org/fhir/Observation/observation-autopsy-histological-exam-results-used-not-named"/>
        <resource>
            <Observation>
                <id value="observation-autopsy-histological-exam-results-used-not-named"/>
                <meta>
                    <profile value="http://hl7.org/fhir/us/bfdr/StructureDefinition/Observation-autopsy-histological-exam-results-used"/>
                </meta>
                <status value="final"/>
                <code>
                    <coding>
                        <system value="http://loinc.org"/>
                        <code value="74498-7"/>
                        <display value="Autopsy or histological placental examination results were used [US Standard Report of Fetal Death]"/>
                    </coding>
                </code>
                <subject>
                    <reference value="Patient/patient-decedent-fetus-not-named"/>
                    <display value="Patient - Decedent Fetus (Fetus Not Named)"/>
                </subject>
                <valueBoolean value="true"/>
            </Observation>
        </resource>
    </entry>
    <entry>
        <fullUrl value="http://example.org/fhir/Observation/observation-plurality-carmen-teresa-lee"/>
        <resource>
            <Observation>
                <id value="observation-plurality-carmen-teresa-lee"/>
                <meta>
                    <profile value="http://hl7.org/fhir/us/vr-common-library/StructureDefinition/Observation-plurality-vr"/>
                </meta>
                <status value="final"/>
                <code>
                    <coding>
                        <system value="http://loinc.org"/>
                        <code value="57722-1"/>
                        <display value="Birth plurality of Pregnancy"/>
                    </coding>
                </code>
                <subject>
                    <reference value="Patient/patient-mother-carmen-teresa-lee"/>
                    <display value="Patient - Mother (Carmen Teresa Lee)"/>
                </subject>
                <valueInteger value="1"/>
            </Observation>
        </resource>
    </entry>
    <entry>
        <fullUrl value="http://example.org/fhir/Observation/observation-parent-education-level-carmen-teresa-lee"/>
        <resource>
            <Observation>
                <id value="observation-parent-education-level-carmen-teresa-lee"/>
                <meta>
                    <profile value="http://hl7.org/fhir/us/vr-common-library/StructureDefinition/Observation-parent-education-level-vr"/>
                </meta>
                <status value="final"/>
                <code>
                    <coding>
                        <system value="http://loinc.org"/>
                        <code value="57712-2"/>
                        <display value="Highest level of education Mother"/>
                    </coding>
                </code>
                <subject>
                    <reference value="Patient/patient-decedent-fetus-not-named"/>
                    <display value="Patient - Decedent Fetus (Fetus Not Named)"/>
                </subject>
                <focus>
                    <reference value="RelatedPerson/relatedperson-mother-carmen-teresa-lee"/>
                    <display value="Patient - Mother (Carmen Teresa Lee)"/>
                </focus>
                <valueCodeableConcept>
                    <coding>
                        <system value="urn:oid:2.16.840.1.114222.4.5.274"/>
                        <code value="PHC1449"/>
                        <display value="9th through 12th grade; no diploma"/>
                    </coding>
                    <text value="9th through 12th grade; no diploma"/>
                </valueCodeableConcept>
            </Observation>
        </resource>
    </entry>
    <entry>
        <fullUrl value="http://example.org/fhir/Observation/observation-edit-flag-delivery-wgt-not-named"/>
        <resource>
            <Observation>
                <id value="observation-edit-flag-delivery-wgt-not-named"/>
                <meta>
                    <profile value="http://hl7.org/fhir/us/bfdr/StructureDefinition/Observation-edit-flag-birthweight"/>
                </meta>
                <status value="final"/>
                <code>
                    <coding>
                        <system value="urn:oid:2.16.840.1.114222.4.5.274"/>
                        <code value="PCH1478"/>
                        <display value="Birth weight Edit flag"/>
                    </coding>
                </code>
                <subject>
                    <reference value="Patient/patient-decedent-fetus-not-named"/>
                    <display value="Decedent Fetus Not Named"/>
                </subject>
                <valueCodeableConcept>
                    <coding>
                        <system value="urn:oid:2.16.840.1.114222.4.5.274"/>
                        <code value="PHC1380"/>
                        <display value="Off"/>
                    </coding>
                </valueCodeableConcept>
            </Observation>
        </resource>
    </entry>
    <entry>
        <fullUrl value="http://example.org/fhir/Observation/observation-edit-flag-est-gestation-not-named"/>
        <resource>
            <Observation>
                <id value="observation-edit-flag-est-gestation-not-named"/>
                <meta>
                    <profile value="http://hl7.org/fhir/us/bfdr/StructureDefinition/Observation-edit-flag-estimate-of-gestation"/>
                </meta>
                <status value="final"/>
                <code>
                    <coding>
                        <system value="urn:oid:2.16.840.1.114222.4.5.274"/>
                        <code value="PHC1481"/>
                        <display value="Gestation age Edit flag"/>
                    </coding>
                </code>
                <subject>
                    <reference value="Patient/patient-decedent-fetus-not-named"/>
                    <display value="Decedent Fetus Not Named"/>
                </subject>
                <valueCodeableConcept>
                    <coding>
                        <system value="urn:oid:2.16.840.1.114222.4.5.274"/>
                        <code value="PHC1380"/>
                        <display value="Off"/>
                    </coding>
                </valueCodeableConcept>
            </Observation>
        </resource>
    </entry>
    <entry>
        <fullUrl value="http://example.org/fhir/Observation/observation-edit-flag-mothers-dob-not-named"/>
        <resource>
            <Observation>
                <id value="observation-edit-flag-mothers-dob-not-named"/>
                <meta>
                    <profile value="http://hl7.org/fhir/us/bfdr/StructureDefinition/Observation-edit-flag-mothers-date-of-birth"/>
                </meta>
                <status value="final"/>
                <code>
                    <coding>
                        <system value="urn:oid:2.16.840.1.114222.4.5.274"/>
                        <code value="PHC1482"/>
                        <display value="Mothers birthdate Edit flag"/>
                    </coding>
                </code>
                <subject>
                    <reference value="Patient/patient-decedent-fetus-not-named"/>
                    <display value="Decedent Fetus Not Named"/>
                </subject>
                <valueCodeableConcept>
                    <coding>
                        <system value="urn:oid:2.16.840.1.114222.4.5.274"/>
                        <code value="PHC1362"/>
                        <display value="Edit Passed"/>
                    </coding>
                </valueCodeableConcept>
            </Observation>
        </resource>
    </entry>
    <entry>
        <fullUrl value="http://example.org/fhir/Observation/observation-edit-flag-mothers-education-not-named"/>
        <resource>
            <Observation>
                <id value="observation-edit-flag-mothers-education-not-named"/>
                <meta>
                    <profile value="http://hl7.org/fhir/us/bfdr/StructureDefinition/Observation-edit-flag-mothers-education"/>
                </meta>
                <status value="final"/>
                <code>
                    <coding>
                        <system value="urn:oid:2.16.840.1.114222.4.5.274"/>
                        <code value="PHC1484"/>
                        <display value="Mothers education Edit flag"/>
                    </coding>
                </code>
                <subject>
                    <reference value="Patient/patient-decedent-fetus-not-named"/>
                    <display value="Decedent Fetus Not Named"/>
                </subject>
                <valueCodeableConcept>
                    <coding>
                        <system value="urn:oid:2.16.840.1.114222.4.5.274"/>
                        <code value="PHC1362"/>
                        <display value="Edit Passed"/>
                    </coding>
                </valueCodeableConcept>
            </Observation>
        </resource>
    </entry>
    <entry>
        <fullUrl value="http://example.org/fhir/Observation/observation-edit-flag-mothers-height-not-named"/>
        <resource>
            <Observation>
                <id value="observation-edit-flag-mothers-height-not-named"/>
                <meta>
                    <profile value="http://hl7.org/fhir/us/bfdr/StructureDefinition/Observation-edit-flag-mothers-height"/>
                </meta>
                <status value="final"/>
                <code>
                    <coding>
                        <system value="urn:oid:2.16.840.1.114222.4.5.274"/>
                        <code value="PHC1485"/>
                        <display value="Mothers height Edit flag"/>
                    </coding>
                </code>
                <subject>
                    <reference value="Patient/patient-decedent-fetus-not-named"/>
                    <display value="Decedent Fetus Not Named"/>
                </subject>
                <valueCodeableConcept>
                    <coding>
                        <system value="urn:oid:2.16.840.1.114222.4.5.274"/>
                        <code value="PHC1362"/>
                        <display value="Edit Passed"/>
                    </coding>
                </valueCodeableConcept>
            </Observation>
        </resource>
    </entry>
    <entry>
        <fullUrl value="http://example.org/fhir/Observation/observation-edit-flag-mothers-prepreg-wgt-not-named"/>
        <resource>
            <Observation>
                <id value="observation-edit-flag-mothers-prepreg-wgt-not-named"/>
                <meta>
                    <profile value="http://hl7.org/fhir/us/bfdr/StructureDefinition/Observation-edit-flag-mothers-prepregnancy-weight"/>
                </meta>
                <status value="final"/>
                <code>
                    <coding>
                        <system value="urn:oid:2.16.840.1.114222.4.5.274"/>
                        <code value="PHC1486"/>
                        <display value="Mothers Prepregnancy Weight Edit flag"/>
                    </coding>
                </code>
                <subject>
                    <reference value="Patient/patient-decedent-fetus-not-named"/>
                    <display value="Decedent Fetus Not Named"/>
                </subject>
                <valueCodeableConcept>
                    <coding>
                        <system value="urn:oid:2.16.840.1.114222.4.5.274"/>
                        <code value="PHC1362"/>
                        <display value="Edit Passed"/>
                    </coding>
                </valueCodeableConcept>
            </Observation>
        </resource>
    </entry>
    <entry>
        <fullUrl value="http://example.org/fhir/Observation/observation-edit-flag-nbr-previous-cesareans-not-named"/>
        <resource>
            <Observation>
                <id value="observation-edit-flag-nbr-previous-cesareans-not-named"/>
                <meta>
                    <profile value="http://hl7.org/fhir/us/bfdr/StructureDefinition/Observation-edit-flag-number-previous-cesareans"/>
                </meta>
                <status value="final"/>
                <code>
                    <coding>
                        <system value="urn:oid:2.16.840.1.114222.4.5.274"/>
                        <code value="PHC1488"/>
                        <display value="Previous Cesarians Edit flag"/>
                    </coding>
                </code>
                <subject>
                    <reference value="Patient/patient-decedent-fetus-not-named"/>
                    <display value="Decedent Fetus Not Named"/>
                </subject>
                <valueCodeableConcept>
                    <coding>
                        <system value="urn:oid:2.16.840.1.114222.4.5.274"/>
                        <code value="PHC1362"/>
                        <display value="Edit Passed"/>
                    </coding>
                </valueCodeableConcept>
            </Observation>
        </resource>
    </entry>
    <entry>
        <fullUrl value="http://example.org/fhir/Observation/observation-edit-flag-plurality-not-named"/>
        <resource>
            <Observation>
                <id value="observation-edit-flag-plurality-not-named"/>
                <meta>
                    <profile value="http://hl7.org/fhir/us/bfdr/StructureDefinition/Observation-edit-flag-plurality"/>
                </meta>
                <status value="final"/>
                <code>
                    <coding>
                        <system value="urn:oid:2.16.840.1.114222.4.5.274"/>
                        <code value="PHC1489"/>
                        <display value="Plurality Edit flag"/>
                    </coding>
                </code>
                <subject>
                    <reference value="Patient/patient-decedent-fetus-not-named"/>
                    <display value="Decedent Fetus Not Named"/>
                </subject>
                <valueCodeableConcept>
                    <coding>
                        <system value="urn:oid:2.16.840.1.114222.4.5.274"/>
                        <code value="PHC1494"/>
                        <display value="Queried, and Correct"/>
                    </coding>
                </valueCodeableConcept>
            </Observation>
        </resource>
    </entry>
    <entry>
        <fullUrl value="http://example.org/fhir/Practitioner/practitioner-vital-records-janet-seito"/>
        <resource>
            <Practitioner>
                <id value="practitioner-vital-records-janet-seito"/>
                <meta>
                    <profile value="http://hl7.org/fhir/us/vr-common-library/StructureDefinition/Practitioner-vr"/>
                </meta>
                <identifier>
                    <system value="http://hl7.org/fhir/sid/us-npi"/>
                    <value value="223347044"/>
                </identifier>
                <name>
                    <family value="Jones"/>
                    <given value="Avery"/>
                    <suffix value="M.D."/>
                </name>
                <qualification>
                    <code>
                        <coding>
                            <system value="http://snomed.info/sct"/>
                            <code value="112247003"/>
                            <display value="Medical doctor"/>
                        </coding>
                    </code>
                </qualification>
            </Practitioner>
        </resource>
    </entry>
    <entry>
        <fullUrl value="http://example.org/fhir/Location/location-south-hospital"/>
        <resource>
            <Location>
                <id value="location-south-hospital"/>
                <meta>
                    <profile value="http://hl7.org/fhir/us/core/StructureDefinition/us-core-location"/>
                </meta>
                <identifier>
                    <system value="http://hl7.org/fhir/sid/us-npi"/>
                    <value value="116441967701"/>
                </identifier>
                <identifier>
                    <system value="http://hl7.org/fhir/sid/state-npi"/>
                    <value value="1234"/>
                </identifier>
                <status value="active"/>
                <name value="South Hospital"/>
                <type>
                    <coding>
                        <system value="http://terminology.hl7.org/CodeSystem/v3-RoleCode"/>
                        <code value="HOSP"/>
                        <display value="Hospital"/>
                    </coding>
                </type>
            </Location>
        </resource>
    </entry>
    <entry>
        <fullUrl value="http://example.org/fhir/Organization/organization-south-hospital"/>
        <resource>
            <Organization>
                <id value="organization-south-hospital"/>
                <identifier>
                    <system value="http://hl7.org/fhir/sid/us-npi"/>
                    <value value="5555512"/>
                </identifier>
                <active value="true"/>
                <type>
                    <coding>
                        <system value="http://terminology.hl7.org/CodeSystem/v3-RoleCode"/>
                        <code value="HOSP"/>
                        <display value="Hospital"/>
                    </coding>
                </type>
                <name value="South Hospital"/>
                <telecom>
                    <system value="phone"/>
                    <value value="+1-555-555-1111"/>
                </telecom>
                <telecom>
                    <system value="email"/>
                    <value value="mail@southhospital.com"/>
                </telecom>
                <address>
                    <line value="2100 North Ave"/>
                    <city value="Salt Lake City"/>
                    <state value="UT"/>
                    <postalCode value="84116"/>
                    <country value="US"/>
                </address>
            </Organization>
        </resource>
    </entry>
    <entry>
        <fullUrl value="http://example.org/fhir/RelatedPerson/relatedperson-mother-carmen-teresa-lee"/>
        <resource>
            <RelatedPerson>
                <id value="relatedperson-mother-carmen-teresa-lee"/>
                <meta>
                    <profile value="http://hl7.org/fhir/us/vr-common-library/StructureDefinition/RelatedPerson-mother-gestational-vr"/>
                </meta>
                <extension url="http://hl7.org/fhir/us/core/StructureDefinition/us-core-race">
                    <extension url="ombCategory">
                        <valueCoding>
                            <system value="urn:oid:2.16.840.1.113883.6.238"/>
                            <code value="2054-5"/>
                            <display value="Black or African American"/>
                        </valueCoding>
                    </extension>
                    <extension url="text">
                        <valueString value="Black or African America"/>
                    </extension>
                </extension>
                <extension url="http://hl7.org/fhir/us/core/StructureDefinition/us-core-ethnicity">
                    <extension url="ombCategory">
                        <valueCoding>
                            <system value="urn:oid:2.16.840.1.113883.6.238"/>
                            <code value="2135-2"/>
                            <display value="Hispanic or Latino"/>
                        </valueCoding>
                    </extension>
                    <extension url="text">
                        <valueString value="Hispanic or Latino"/>
                    </extension>
                </extension>
                <active value="true"/>
                <patient>
                    <reference value="Patient/patient-decedent-fetus-not-named"/>
                    <display value="Patient - Decedent Fetus (Fetus Not Named)"/>
                </patient>
                <relationship>
                    <coding>
                        <system value="http://terminology.hl7.org/CodeSystem/v3-RoleCode"/>
                        <code value="GESTM"/>
                        <display value="gestational mother"/>
                    </coding>
                    <text value="Gestational Mother"/>
                </relationship>
                <name>
                    <use value="official"/>
                    <family value="Lee"/>
                    <given value="Carmen"/>
                    <given value="Teresa"/>
                </name>
                <gender value="female"/>
                <birthDate value="1986-02-15"/>
            </RelatedPerson>
        </resource>
    </entry>
</Bundle>