<?xml version="1.0" encoding="UTF-8"?>
<Bundle
    xmlns="http://hl7.org/fhir">
    <id value="bundle-provider-facility-fetal-death-not-named"/>
    <meta>
        <versionId value="9"/>
        <lastUpdated value="2020-08-31T22:16:14.073+00:00"/>
        <source value="#KkbisPBbSYH5YonG"/>
    </meta>
    <identifier>
        <system value="urn:ietf:rfc:3986"/>
        <value value="urn:uuid:64496e0a-8f12-45de-8c4e-5e51528bdc6d"/>
    </identifier>
    <type value="document"/>
    <timestamp value="2019-01-19T17:45:14.637+00:00"/>
    <entry>
        <fullUrl value="Composition/composition-provider-facility-fetal-death-not-named"/>
        <resource>
            <Composition>
                <id value="composition-provider-facility-fetal-death-not-named"/>
                <extension url="http://hl7.org/fhir/us/bfdr/StructureDefinition/Extension-date-received-by-registrar">
                    <valueDateTime value="2019-02-12"/>
                </extension>
                <identifier>
                    <value value="c03eab8c-11e8-4d0c-ad2a-b385395e27da"/>
                </identifier>
                <status value="final"/>
                <type>
                    <coding>
                        <system value="http://loinc.org"/>
                        <code value="92021-5"/>
                        <display value="Provider supplied facility fetal death report Document"/>
                    </coding>
                </type>
                <subject>
                    <reference value="Patient/patient-decedent-fetus-not-named"/>
                    <display value="Patient - Decedent (Fetus Not Named)"/>
                </subject>
                <encounter>
                    <reference value="Encounter/encounter-maternity-carmen-teresa-lee"/>
                    <display value="Encounter - Maternity (Carmen Teresa Lee)"/>
                </encounter>
                <date value="2019-01-09"/>
                <author>
                    <reference value="Practitioner/practitioner-live-birth-fetal-death-jessica-leung"/>
                    <display value="Practitioner - Live Birth Fetal Death (Jessica Leung)"/>
                </author>
                <title value="Provider supplied facility fetal death report Document"/>
                <section>
                    <title value="Mother (prenatal) Section on the Fetal Death Report"/>
                    <code>
                        <coding>
                            <system value="http://loinc.org"/>
                            <code value="57073-9"/>
                            <display value="Prenatal records"/>
                        </coding>
                    </code>
                    <focus>
                        <reference value="Patient/patient-mother-carmen-teresa-lee"/>
                        <display value="Patient - Mother (Carmen Teresa Lee)"/>
                    </focus>
                    <entry>
                        <reference value="Observation/observation-planned-to-deliver-at-home-not-named"/>
                        <display value="Observation - Planned to Deliver at Home (Carmen Teresa Lee)"/>
                    </entry>
                    <entry>
                        <reference value="Observation/observation-date-of-first-prenatal-care-visit-carmen-teresa-lee"/>
                        <display value="Observation - Date of First Prenatal Care Visit (Carmen Teresa Lee)"/>
                    </entry>
                    <entry>
                        <reference value="Observation/observation-last-menstrual-period-carmen-teresa-lee"/>
                        <display value="Observation - Last Menstrual Period (Carmen Teresa Lee)"/>
                    </entry>
                    <entry>
                        <reference value="Observation/observation-number-births-now-living-carmen-teresa-lee"/>
                        <display value="Observation - Number Births Now Living (Carmen Teresa Lee)"/>
                    </entry>
                    <entry>
                        <reference value="Observation/observation-number-births-now-dead-carmen-teresa-lee"/>
                        <display value="observation-number-births-now-dead-carmen-teresa-lee"/>
                    </entry>
                    <entry>
                        <reference value="Observation/observation-date-of-last-live-birth-carmen-teresa-lee"/>
                        <display value="Observation - Date of Last Live Birth (Carmen Teresa Lee)"/>
                    </entry>
                </section>
                <section>
                    <title value="Medical and Health Information on the Fetal Death Report"/>
                    <code>
                        <coding>
                            <system value="http://loinc.org"/>
                            <code value="55752-0"/>
                            <display value="Clinical information"/>
                        </coding>
                    </code>
                    <focus>
                        <reference value="Patient/patient-mother-carmen-teresa-lee"/>
                        <display value="Patient - Mother (Carmen Teresa Lee)"/>
                    </focus>
                    <entry>
                        <reference value="Observation/observation-pregnancy-risk-factor-carmen-teresa-lee-1"/>
                        <display value="Observation - Pregnancy Risk Factor (Carmen Teresa Lee: Pregnancy-induced hypertension)"/>
                    </entry>
                    <entry>
                        <reference value="Observation/observation-pregnancy-risk-factor-carmen-teresa-lee-2"/>
                        <display value="Observation - Pregnancy Risk Factor (Carmen Teresa Lee: Fertility enhancing drug therapy)"/>
                    </entry>
                    <entry>
                        <reference value="Observation/observation-number-previous-cesareans-carmen-teresa-lee"/>
                        <display value="Observation - Number Previous Cesareans (Carmen Teresa Lee)"/>
                    </entry>
                    <entry>
                        <reference value="Condition/condition-fetal-presentation-not-named"/>
                        <display value="Condition - Fetal Presentation (Fetus Not Named)"/>
                    </entry>
                    <entry>
                        <reference value="Procedure/procedure-final-route-method-delivery-not-named"/>
                        <display value="Procedure - Final Route and Method of Delivery (Fetus Not Named)"/>
                    </entry>
                    <entry>
                        <reference value="Condition/condition-maternal-morbidity-carmen-teresa-lee"/>
                        <display value="Condition - Maternal Morbidity (Carmen Teresa Lee)"/>
                    </entry>
                </section>
                <section>
                    <title value="Fetal delivery information section on the Fetal Death Report"/>
                    <code>
                        <coding>
                            <system value="http://loinc.org"/>
                            <code value="76400-1"/>
                            <display value="Fetal delivery information Document [US Standard Report of Fetal Death]"/>
                        </coding>
                    </code>
                    <entry>
                        <reference value="Observation/observation-birth-weight-not-named"/>
                        <display value="Observation - Birth Weight (Fetus Not Named)"/>
                    </entry>
                    <entry>
                        <reference value="Observation/observation-gestational-age-at-delivery-not-named"/>
                        <display value="Observation - Gestational Age at Delivery (Fetus Not Named)"/>
                    </entry>
                    <entry>
                        <reference value="Condition/condition-fetal-death-cause-or-condition-not-named"/>
                        <display value="Condition - Fetal Death Cause or Condition (Fetus Not Named)"/>
                    </entry>
                    <entry>
                        <reference value="Condition/condition-fetal-death-other-significant-cause-not-named"/>
                        <display value="Condition - Fetal Death Other Significant Cause (Fetus Not Named)"/>
                    </entry>
                    <entry>
                        <reference value="Observation/observation-estimated-fetal-death-time-point-not-named"/>
                        <display value="Observation - Estimated Fetal Death Time Point (Fetus Not Named)"/>
                    </entry>
                    <entry>
                        <reference value="Observation/observation-autopsy-performed-not-named"/>
                        <display value="Observation - Autopsy Performed (Fetus Not Named)"/>
                    </entry>
                    <entry>
                        <reference value="Observation/observation-histological-placental-exam-performed-not-named"/>
                        <display value="Observation - Histological Placental Exam Performed (Fetus Not Named)"/>
                    </entry>
                    <entry>
                        <reference value="Observation/observation-autopsy-histological-exam-results-used-not-named"/>
                        <display value="Observation - Autopsy or Histological Exam Results Used (Fetus Not Named)"/>
                    </entry>
                    <entry>
                        <reference value="Observation/observation-plurality-carmen-teresa-lee"/>
                        <display value="Observation - Plurality (Carmen Teresa Lee)"/>
                    </entry>
                </section>
            </Composition>
        </resource>
    </entry>
    <entry>
        <fullUrl value="Observation/observation-autopsy-histological-exam-results-used-not-named"/>
        <resource>
            <Observation>
                <id value="observation-autopsy-histological-exam-results-used-not-named"/>
                <status value="final"/>
                <code>
                    <coding>
                        <system value="http://loinc.org"/>
                        <code value="74498-7"/>
                        <display value="Autopsy or histological placental examination results were used [US Standard Report of Fetal Death]"/>
                    </coding>
                </code>
                <subject>
                    <reference value="Patient/patient-decedent-fetus-not-named"/>
                    <display value="Patient - Decedent Fetus (Fetus Not Named)"/>
                </subject>
                <valueBoolean value="true"/>
            </Observation>
        </resource>
    </entry>
    <entry>
        <fullUrl value="Observation/observation-number-births-now-living-carmen-teresa-lee"/>
        <resource>
            <Observation>
                <id value="observation-number-births-now-living-carmen-teresa-lee"/>
                <status value="final"/>
                <code>
                    <coding>
                        <system value="http://loinc.org"/>
                        <code value="11638-4"/>
                        <display value="[#] Births.still living"/>
                    </coding>
                    <text value="[#] Births.still living"/>
                </code>
                <subject>
                    <reference value="Patient/patient-mother-carmen-teresa-lee"/>
                    <display value="Patient - Mother (Carmen Teresa Lee)"/>
                </subject>
                <valueInteger value="1"/>
            </Observation>
        </resource>
    </entry>
    <entry>
        <fullUrl value="Observation/observation-number-births-now-dead-carmen-teresa-lee"/>
        <resource>
            <Observation>
                <id value="observation-number-births-now-dead-carmen-teresa-lee"/>
                <status value="final"/>
                <code>
                    <coding>
                        <system value="http://loinc.org"/>
                        <code value="68496-9"/>
                        <display value="Previous live births now dead #"/>
                    </coding>
                    <text value="Previous live births now dead #"/>
                </code>
                <subject>
                    <reference value="Patient/patient-mother-carmen-teresa-lee"/>
                    <display value="Patient - Mother (Carmen Teresa Lee)"/>
                </subject>
                <valueInteger value="0"/>
            </Observation>
        </resource>
    </entry>
    <entry>
        <fullUrl value="Observation/observation-pregnancy-risk-factor-carmen-teresa-lee-2"/>
        <resource>
            <Observation>
                <id value="observation-pregnancy-risk-factor-carmen-teresa-lee-2"/>
                <status value="final"/>
                <code>
                    <coding>
                        <system value="http://loinc.org"/>
                        <code value="73775-9"/>
                        <display value="Mothers Risk factors in this pregnancy [US Standard Certificate of Live Birth]"/>
                    </coding>
                    <text value="Mothers Risk factors in this pregnancy [US Standard Certificate of Live Birth]"/>
                </code>
                <subject>
                    <reference value="Patient/patient-mother-carmen-teresa-lee"/>
                    <display value="Patient - Mother (Carmen Teresa Lee)"/>
                </subject>
                <valueCodeableConcept>
                    <coding>
                        <system value="http://snomed.info/sct"/>
                        <code value="11687002"/>
                        <display value="Gestational diabetes mellitus (disorder)"/>
                    </coding>
                    <text value="Gestational diabetes mellitus (disorder)"/>
                </valueCodeableConcept>
            </Observation>
        </resource>
    </entry>
    <entry>
        <fullUrl value="Observation/observation-pregnancy-risk-factor-carmen-teresa-lee-1"/>
        <resource>
            <Observation>
                <id value="observation-pregnancy-risk-factor-carmen-teresa-lee-1"/>
                <status value="final"/>
                <code>
                    <coding>
                        <system value="http://loinc.org"/>
                        <code value="73775-9"/>
                        <display value="Mothers Risk factors in this pregnancy [US Standard Certificate of Live Birth]"/>
                    </coding>
                    <text value="Mothers Risk factors in this pregnancy [US Standard Certificate of Live Birth]"/>
                </code>
                <subject>
                    <reference value="Patient/patient-mother-carmen-teresa-lee"/>
                    <display value="Patient - Mother (Carmen Teresa Lee)"/>
                </subject>
                <valueCodeableConcept>
                    <coding>
                        <system value="http://snomed.info/sct"/>
                        <code value="38341003"/>
                        <display value="Hypertensive disorder, systemic arterial (disorder)"/>
                    </coding>
                    <text value="Hypertensive disorder, systemic arterial (disorder)"/>
                </valueCodeableConcept>
            </Observation>
        </resource>
    </entry>
    <entry>
        <fullUrl value="Observation/observation-number-previous-cesareans-carmen-teresa-lee"/>
        <resource>
            <Observation>
                <id value="observation-number-previous-cesareans-carmen-teresa-lee"/>
                <status value="final"/>
                <code>
                    <coding>
                        <system value="http://loinc.org"/>
                        <code value="68497-7"/>
                        <display value="Previous cesarean deliveries #"/>
                    </coding>
                    <text value="Previous cesarean deliveries #"/>
                </code>
                <subject>
                    <reference value="Patient/patient-mother-carmen-teresa-lee"/>
                    <display value="Patient - Mother (Carmen Teresa Lee)"/>
                </subject>
                <valueInteger value="1"/>
            </Observation>
        </resource>
    </entry>
    <entry>
        <fullUrl value="Condition/condition-fetal-presentation-not-named"/>
        <resource>
            <Condition>
                <id value="condition-fetal-presentation-not-named"/>
                <category>
                    <coding>
                        <system value="http://terminology.hl7.org/CodeSystem/condition-category"/>
                        <code value="encounter-diagnosis"/>
                        <display value="Encounter Diagnosis"/>
                    </coding>
                </category>
                <code>
                    <coding>
                        <system value="http://snomed.info/sct"/>
                        <code value="6096002"/>
                        <display value="Breech presentation (finding)"/>
                    </coding>
                </code>
                <subject>
                    <reference value="Patient/patient-decedent-fetus-not-named"/>
                    <display value="Patient - Decedent Fetus (Fetus Not Named)"/>
                </subject>
            </Condition>
        </resource>
    </entry>
    <entry>
        <fullUrl value="Practitioner/practitioner-live-birth-fetal-death-jessica-leung"/>
        <resource>
            <Practitioner>
                <id value="practitioner-live-birth-fetal-death-jessica-leung"/>
                <identifier>
                    <system value="http://hl7.org/fhir/sid/us-npi"/>
                    <value value="223347055"/>
                </identifier>
                <name>
                    <family value="Jessica"/>
                    <given value="Leung"/>
                </name>
                <qualification>
                    <code>
                        <text value="Birth Clerk"/>
                    </code>
                </qualification>
            </Practitioner>
        </resource>
    </entry>
    <entry>
        <fullUrl value="Condition/condition-fetal-death-cause-or-condition-not-named"/>
        <resource>
            <Condition>
                <id value="condition-fetal-death-cause-or-condition-not-named"/>
                <category>
                    <coding>
                        <system value="http://loinc.org"/>
                        <code value="76060-3"/>
                        <display value="Initiating cause or condition of fetal death [US Standard Report of Fetal Death]"/>
                    </coding>
                </category>
                <code>
                    <coding>
                        <system value="http://snomed.info/sct"/>
                        <code value="44223004"/>
                        <display value="Premature rupture of membranes (disorder)"/>
                    </coding>
                    <text value="Premature rupture of membranes (disorder)"/>
                </code>
                <subject>
                    <reference value="Patient/patient-decedent-fetus-not-named"/>
                    <display value="Patient - Decedent Fetus (Fetus Not Named)"/>
                </subject>
            </Condition>
        </resource>
    </entry>
    <entry>
        <fullUrl value="Procedure/procedure-final-route-method-delivery-not-named"/>
        <resource>
            <Procedure>
                <id value="procedure-final-route-method-delivery-not-named"/>
                <status value="completed"/>
                <code>
                    <coding>
                        <system value="http://snomed.info/sct"/>
                        <code value="48782003"/>
                        <display value="Delivery normal (finding)"/>
                    </coding>
                    <text value="Spontaneous vaginal delivery"/>
                </code>
                <subject>
                    <reference value="Patient/patient-decedent-fetus-not-named"/>
                    <display value="Patient - Decedent Fetus (Fetus Not Named)"/>
                </subject>
                <performedPeriod>
                    <start value="2019-01-19T18:00:00-07:00"/>
                    <end value="2019-01-19T18:23:00-07:00"/>
                </performedPeriod>
            </Procedure>
        </resource>
    </entry>
    <entry>
        <fullUrl value="Patient/patient-decedent-fetus-not-named"/>
        <resource>
            <Patient>
                <id value="patient-decedent-fetus-not-named"/>
                <text>
                    <status value="generated"/>
                    <div
                        xmlns="http://www.w3.org/1999/xhtml">
                        <div class="hapiHeaderText">
                            <b>null </b>
                        </div>
                        <table class="hapiPropertyTable">
                            <tbody>
                                <tr>
                                    <td>Identifier</td>
                                    <td>9932702</td>
                                </tr>
                                <tr>
                                    <td>Date of birth</td>
                                    <td>
                                        <span>09 January 2019</span>
                                    </td>
                                </tr>
                            </tbody>
                        </table>
                    </div>
                </text>
                <extension url="http://hl7.org/fhir/us/core/StructureDefinition/us-core-birthsex">
                    <valueCode value="F"/>
                </extension>
                <extension url="http://hl7.org/fhir/StructureDefinition/patient-birthPlace">
                    <valueAddress>
                        <city value="Ann Arbor"/>
                        <state value="MI"/>
                        <postalCode value="48103"/>
                    </valueAddress>
                </extension>
                <identifier>
                    <use value="usual"/>
                    <type>
                        <coding>
                            <system value="http://terminology.hl7.org/CodeSystem/v2-0203"/>
                            <code value="MR"/>
                            <display value="Medical Record Number"/>
                        </coding>
                    </type>
                    <system value="http://hospital.smarthealthit.org"/>
                    <value value="9932702"/>
                </identifier>
                <name>
                    <family value="UNK">
                        <extension url="http://hl7.org/fhir/StructureDefinition/data-absent-reason">
                            <valueCode value="not-applicable"/>
                        </extension>
                    </family>
                </name>
                <gender value="female"/>
                <birthDate value="2019-01-09">
                    <extension url="http://hl7.org/fhir/StructureDefinition/patient-birthTime">
                        <valueDateTime value="2019-01-09T18:23:00-07:00"/>
                    </extension>
                </birthDate>
                <deceasedBoolean value="true"/>
            </Patient>
        </resource>
    </entry>
    <entry>
        <fullUrl value="Observation/observation-planned-to-deliver-at-home-not-named"/>
        <resource>
            <Observation>
                <id value="observation-planned-to-deliver-at-home-not-named"/>
                <status value="final"/>
                <code>
                    <coding>
                        <system value="http://loinc.org"/>
                        <code value="73765-0"/>
                        <display value="Mother Planned to deliver at home [US Standard Certificate of Live Birth]"/>
                    </coding>
                    <text value="Planned to deliver at home?"/>
                </code>
                <subject>
                    <reference value="Patient/patient-decedent-fetus-not-named"/>
                    <display value="Patient - Decedent Fetus (Fetus Not Named)"/>
                </subject>
                <focus>
                    <reference value="Patient/patient-mother-carmen-teresa-lee"/>
                    <display value="Patient - Mother (Carmen Teresa Lee)"/>
                </focus>
                <valueBoolean value="false"/>
            </Observation>
        </resource>
    </entry>
    <entry>
        <fullUrl value="Condition/condition-fetal-death-other-significant-cause-not-named"/>
        <resource>
            <Condition>
                <id value="condition-fetal-death-other-significant-cause-not-named"/>
                <category>
                    <coding>
                        <system value="http://loinc.org"/>
                        <code value="76061-1"/>
                        <display value="Other significant causes or conditions of fetal death [US Standard Report of Fetal Death]"/>
                    </coding>
                </category>
                <code>
                    <coding>
                        <system value="http://snomed.info/sct"/>
                        <code value="237292005"/>
                        <display value="Placental insufficiency (disorder)"/>
                    </coding>
                    <text value="Placental insufficiency (disorder)"/>
                </code>
                <subject>
                    <reference value="Patient/patient-decedent-fetus-not-named"/>
                    <display value="Patient - Decedent Fetus (Fetus Not Named)"/>
                </subject>
            </Condition>
        </resource>
    </entry>
    <entry>
        <fullUrl value="Observation/observation-plurality-carmen-teresa-lee"/>
        <resource>
            <Observation>
                <id value="observation-plurality-carmen-teresa-lee"/>
                <status value="final"/>
                <code>
                    <coding>
                        <system value="http://loinc.org"/>
                        <code value="57722-1"/>
                        <display value="Birth plurality of Pregnancy"/>
                    </coding>
                </code>
                <subject>
                    <reference value="Patient/patient-mother-carmen-teresa-lee"/>
                    <display value="Patient - Mother (Carmen Teresa Lee)"/>
                </subject>
                <valueInteger value="1"/>
            </Observation>
        </resource>
    </entry>
    <entry>
        <fullUrl value="Observation/observation-autopsy-performed-not-named"/>
        <resource>
            <Observation>
                <id value="observation-autopsy-performed-not-named"/>
                <status value="final"/>
                <code>
                    <coding>
                        <system value="http://loinc.org"/>
                        <code value="73768-4"/>
                        <display value="Autopsy was performed [US Standard Report of Fetal Death]"/>
                    </coding>
                </code>
                <subject>
                    <reference value="Patient/patient-decedent-fetus-not-named"/>
                    <display value="Patient - Decedent Fetus (Fetus Not Named)"/>
                </subject>
                <valueCodeableConcept>
                    <coding>
                        <system value="http://snomed.info/sct"/>
                        <code value="719828003"/>
                        <display value="Autopsy not done"/>
                    </coding>
                </valueCodeableConcept>
            </Observation>
        </resource>
    </entry>
    <entry>
        <fullUrl value="Condition/condition-maternal-morbidity-carmen-teresa-lee"/>
        <resource>
            <Condition>
                <id value="condition-maternal-morbidity-carmen-teresa-lee"/>
                <category>
                    <coding>
                        <system value="http://loinc.org"/>
                        <code value="73781-7"/>
                        <display value="Maternal morbidity [US Standard Certificate of Live Birth]"/>
                    </coding>
                </category>
                <code>
                    <coding>
                        <system value="http://snomed.info/sct"/>
                        <code value="260413007"/>
                        <display value="None"/>
                    </coding>
                    <text value="None"/>
                </code>
                <subject>
                    <reference value="Patient/patient-mother-carmen-teresa-lee"/>
                    <display value="Patient - Mother (Carmen Teresa Lee)"/>
                </subject>
            </Condition>
        </resource>
    </entry>
    <entry>
        <fullUrl value="Observation/observation-birth-weight-not-named"/>
        <resource>
            <Observation>
                <id value="observation-birth-weight-not-named"/>
                <status value="final"/>
                <code>
                    <coding>
                        <system value="http://loinc.org"/>
                        <code value="8339-4"/>
                        <display value="Birth weight Measured"/>
                    </coding>
                </code>
                <subject>
                    <reference value="Patient/patient-decedent-fetus-not-named"/>
                    <display value="Patient - Decedent Fetus (Fetus Not Named)"/>
                </subject>
                <valueQuantity>
                    <value value="1530"/>
                    <system value="http://unitsofmeasure.org"/>
                    <code value="g"/>
                </valueQuantity>
            </Observation>
        </resource>
    </entry>
    <entry>
        <fullUrl value="Observation/observation-histological-placental-exam-performed-not-named"/>
        <resource>
            <Observation>
                <id value="observation-histological-placental-exam-performed-not-named"/>
                <status value="final"/>
                <code>
                    <coding>
                        <system value="http://loinc.org"/>
                        <code value="73767-6"/>
                        <display value="Histological placental examination was performed [US Standard Report of Fetal Death]"/>
                    </coding>
                </code>
                <subject>
                    <reference value="Patient/patient-decedent-fetus-not-named"/>
                    <display value="Patient - Decedent Fetus (Fetus Not Named)"/>
                </subject>
                <valueCodeableConcept>
                    <coding>
                        <system value="http://snomed.info/sct"/>
                        <code value="398166005"/>
                        <display value="Performed"/>
                    </coding>
                </valueCodeableConcept>
            </Observation>
        </resource>
    </entry>
    <entry>
        <fullUrl value="Encounter/encounter-maternity-carmen-teresa-lee"/>
        <resource>
            <Encounter>
                <id value="encounter-maternity-carmen-teresa-lee"/>
                <identifier>
                    <system value="http://hospital.smarthealthit.org"/>
                    <value value="8937015"/>
                </identifier>
                <status value="finished"/>
                <class>
                    <system value="http://terminology.hl7.org/CodeSystem/v3-ActCode"/>
                    <code value="IMP"/>
                    <display value="inpatient encounter"/>
                </class>
                <type>
                    <coding>
                        <system value="http://www.ama-assn.org/go/cpt"/>
                        <code value="99234"/>
                    </coding>
                    <text value="Under Observation or Inpatient Care Services (Including Admission and Discharge Services)"/>
                </type>
                <subject>
                    <reference value="Patient/patient-mother-carmen-teresa-lee"/>
                    <display value="Patient - Mother (Carmen Teresa Lee)"/>
                </subject>
                <participant>
                    <type>
                        <coding>
                            <system value="http://loinc.org"/>
                            <code value="87286-1"/>
                            <display value="Birth attendant [Extended Identifier]"/>
                        </coding>
                    </type>
                    <individual>
                        <reference value="Practitioner/practitioner-live-birth-fetal-death-janet-seito"/>
                        <display value="Practitioner - Live Birth Fetal Death (Janet Seito, MD)"/>
                    </individual>
                </participant>
                <period>
                    <start value="2019-01-08T10:00:00-07:00"/>
                    <end value="2019-01-09T17:00:00-07:00"/>
                </period>
                <location>
                    <location>
                        <reference value="Location/location-south-hospital"/>
                        <display value="Location - US Core Location (South Hospital)"/>
                    </location>
                    <physicalType>
                        <coding>
                            <system value="http://snomed.info/sct"/>
                            <code value="22232009"/>
                            <display value="Hospital"/>
                        </coding>
                    </physicalType>
                </location>
                <serviceProvider>
                    <reference value="Organization/organization-south-hospital"/>
                    <display value="Organization - US Core Organization (South Hospital Organization)"/>
                </serviceProvider>
            </Encounter>
        </resource>
    </entry>
    <entry>
        <fullUrl value="Observation/observation-gestational-age-at-delivery-not-named"/>
        <resource>
            <Observation>
                <id value="observation-gestational-age-at-delivery-not-named"/>
                <status value="final"/>
                <code>
                    <coding>
                        <system value="http://loinc.org"/>
                        <code value="11884-4"/>
                        <display value="Gestational age Estimated"/>
                    </coding>
                </code>
                <subject>
                    <reference value="Patient/patient-decedent-fetus-not-named"/>
                    <display value="Patient - Decedent Fetus (Fetus Not Named)"/>
                </subject>
                <valueQuantity>
                    <value value="20"/>
                    <system value="http://unitsofmeasure.org"/>
                    <code value="wk"/>
                </valueQuantity>
            </Observation>
        </resource>
    </entry>
    <entry>
        <fullUrl value="Observation/observation-date-of-first-prenatal-care-visit-carmen-teresa-lee"/>
        <resource>
            <Observation>
                <id value="observation-date-of-first-prenatal-care-visit-carmen-teresa-lee"/>
                <status value="final"/>
                <code>
                    <coding>
                        <system value="http://loinc.org"/>
                        <code value="69044-6"/>
                        <display value="Date first prenatal visit"/>
                    </coding>
                    <text value="Date of first prenatal care visit"/>
                </code>
                <subject>
                    <reference value="Patient/patient-decedent-fetus-not-named"/>
                    <display value="Patient - Decedent Fetus (Fetus Not Named)"/>
                </subject>
                <focus>
                    <reference value="Patient/patient-mother-carmen-teresa-lee"/>
                    <display value="Patient - Mother (Carmen Teresa Lee)"/>
                </focus>
                <valueDateTime value="2018-05-18"/>
            </Observation>
        </resource>
    </entry>
    <entry>
        <fullUrl value="Observation/observation-estimated-fetal-death-time-point-not-named"/>
        <resource>
            <Observation>
                <id value="observation-estimated-fetal-death-time-point-not-named"/>
                <status value="final"/>
                <code>
                    <coding>
                        <system value="http://loinc.org"/>
                        <code value="73811-2"/>
                        <display value="Estimated timing of fetal death [US Standard Report of Fetal Death]"/>
                    </coding>
                </code>
                <subject>
                    <reference value="Patient/patient-decedent-fetus-not-named"/>
                    <display value="Patient - Decedent Fetus (Fetus Not Named)"/>
                </subject>
                <valueCodeableConcept>
                    <coding>
                        <system value="http://snomed.info/sct"/>
                        <code value="434631000124100"/>
                        <display value="Fetal intrapartum death after first assessment (event)"/>
                    </coding>
                    <text value="Died during labor, after first assessment"/>
                </valueCodeableConcept>
            </Observation>
        </resource>
    </entry>
    <entry>
        <fullUrl value="Observation/observation-last-menstrual-period-carmen-teresa-lee"/>
        <resource>
            <Observation>
                <id value="observation-last-menstrual-period-carmen-teresa-lee"/>
                <status value="final"/>
                <code>
                    <coding>
                        <system value="http://loinc.org"/>
                        <code value="8665-2"/>
                        <display value="Last menstrual period start date"/>
                    </coding>
                    <text value="Last menstrual period start date"/>
                </code>
                <subject>
                    <reference value="Patient/patient-mother-carmen-teresa-lee"/>
                    <display value="Patient - Mother (Carmen Teresa Lee)"/>
                </subject>
                <valueDateTime value="2018-04-18"/>
            </Observation>
        </resource>
    </entry>
    <entry>
        <fullUrl value="Observation/observation-date-of-last-live-birth-carmen-teresa-lee"/>
        <resource>
            <Observation>
                <id value="observation-date-of-last-live-birth-carmen-teresa-lee"/>
                <status value="final"/>
                <code>
                    <coding>
                        <system value="http://loinc.org"/>
                        <code value="68499-3"/>
                        <display value="Date last live birth"/>
                    </coding>
                    <text value="Date of last live birth"/>
                </code>
                <subject>
                    <reference value="Patient/patient-mother-carmen-teresa-lee"/>
                    <display value="Patient - Mother (Carmen Teresa Lee)"/>
                </subject>
                <valueDateTime value="2016-01-28"/>
            </Observation>
        </resource>
    </entry>
    <entry>
        <fullUrl value="Organization/organization-south-hospital"/>
        <resource>
            <Organization>
                <id value="organization-south-hospital"/>
                <identifier>
                    <system value="http://hl7.org.fhir/sid/us-npi"/>
                    <value value="5555512"/>
                </identifier>
                <active value="true"/>
                <type>
                    <coding>
                        <system value="http://terminology.hl7.org/CodeSystem/v3-RoleCode"/>
                        <code value="HOSP"/>
                        <display value="Hospital"/>
                    </coding>
                </type>
                <name value="South Hospital"/>
                <telecom>
                    <system value="phone"/>
                    <value value="+1-555-555-1111"/>
                </telecom>
                <telecom>
                    <system value="email"/>
                    <value value="mail@southhospital.com"/>
                </telecom>
                <address>
                    <line value="2100 North Ave"/>
                    <city value="Salt Lake City"/>
                    <state value="UT"/>
                    <postalCode value="84116"/>
                    <country value="US"/>
                </address>
            </Organization>
        </resource>
    </entry>
    <entry>
        <fullUrl value="Patient/patient-mother-carmen-teresa-lee"/>
        <resource>
            <Patient>
                <id value="patient-mother-carmen-teresa-lee"/>
                <text>
                    <status value="generated"/>
                    <div
                        xmlns="http://www.w3.org/1999/xhtml">
                        <div class="hapiHeaderText">Carmen Teresa 
                            <b>LEE </b>
                        </div>
                        <table class="hapiPropertyTable">
                            <tbody>
                                <tr>
                                    <td>Identifier</td>
                                    <td>9992702</td>
                                </tr>
                                <tr>
                                    <td>Address</td>
                                    <td>
                                        <span>3670 Miller Road </span>
                                        <br/>
                                        <span>Ann Arbor </span>
                                        <span>MI </span>
                                        <span>US </span>
                                    </td>
                                </tr>
                                <tr>
                                    <td>Date of birth</td>
                                    <td>
                                        <span>15 February 1986</span>
                                    </td>
                                </tr>
                            </tbody>
                        </table>
                    </div>
                </text>
                <extension url="http://hl7.org/fhir/us/core/StructureDefinition/us-core-race">
                    <extension url="ombCategory">
                        <valueCoding>
                            <system value="urn:oid:2.16.840.1.113883.6.238"/>
                            <code value="2054-5"/>
                            <display value="Black or African American"/>
                        </valueCoding>
                    </extension>
                    <extension url="text">
                        <valueString value="Black or African America"/>
                    </extension>
                </extension>
                <extension url="http://hl7.org/fhir/us/core/StructureDefinition/us-core-ethnicity">
                    <extension url="ombCategory">
                        <valueCoding>
                            <system value="urn:oid:2.16.840.1.113883.6.238"/>
                            <code value="2135-2"/>
                            <display value="Hispanic or Latino"/>
                        </valueCoding>
                    </extension>
                    <extension url="text">
                        <valueString value="Hispanic or Latino"/>
                    </extension>
                </extension>
                <extension url="http://hl7.org/fhir/us/core/StructureDefinition/us-core-birthsex">
                    <valueCode value="F"/>
                </extension>
                <extension url="http://hl7.org/fhir/StructureDefinition/patient-birthPlace">
                    <valueAddress>
                        <state value="PR"/>
                    </valueAddress>
                </extension>
                <identifier>
                    <use value="usual"/>
                    <type>
                        <coding>
                            <system value="http://terminology.hl7.org/CodeSystem/v2-0203"/>
                            <code value="MR"/>
                            <display value="Medical Record Number"/>
                        </coding>
                    </type>
                    <system value="http://hospital.smarthealthit.org"/>
                    <value value="9992702"/>
                </identifier>
                <name>
                    <use value="official"/>
                    <family value="Lee"/>
                    <given value="Carmen"/>
                    <given value="Teresa"/>
                </name>
                <name>
                    <use value="maiden"/>
                    <family value="Santos"/>
                    <given value="Carmen"/>
                    <given value="Teresa"/>
                </name>
                <gender value="female"/>
                <birthDate value="1986-02-15"/>
                <address>
                    <extension url="http://hl7.org/fhir/us/fhir-vr-common-ig/StructureDefinition/Extension-within-city-limits-indicator">
                        <valueCoding>
                            <system value="http://terminology.hl7.org/CodeSystem/v2-0136"/>
                            <code value="N"/>
                            <display value="No"/>
                        </valueCoding>
                    </extension>
                    <use value="home"/>
                    <line value="3670 Miller Road"/>
                    <city value="Ann Arbor"/>
                    <state value="MI"/>
                    <postalCode value="48103"/>
                    <country value="US"/>
                </address>
            </Patient>
        </resource>
    </entry>
    <entry>
        <fullUrl value="Location/location-south-hospital"/>
        <resource>
            <Location>
                <id value="location-south-hospital"/>
                <status value="active"/>
                <name value="South Hospital"/>
                <type>
                    <coding>
                        <system value="http://terminology.hl7.org/CodeSystem/v3-RoleCode"/>
                        <code value="HOSP"/>
                        <display value="Hospital"/>
                    </coding>
                </type>
            </Location>
        </resource>
    </entry>
    <entry>
        <fullUrl value="Practitioner/practitioner-live-birth-fetal-death-janet-seito"/>
        <resource>
            <Practitioner>
                <id value="practitioner-live-birth-fetal-death-janet-seito"/>
                <identifier>
                    <system value="http://hl7.org/fhir/sid/us-npi"/>
                    <value value="223347044"/>
                </identifier>
                <name>
                    <family value="Jones"/>
                    <given value="Avery"/>
                    <suffix value="M.D."/>
                </name>
                <qualification>
                    <code>
                        <coding>
                            <system value="http://snomed.info/sct"/>
                            <code value="112247003"/>
                            <display value="Medical doctor"/>
                        </coding>
                    </code>
                </qualification>
            </Practitioner>
        </resource>
    </entry>
</Bundle>