<?xml version="1.0" encoding="UTF-8"?>
<Bundle xmlns="http://hl7.org/fhir">
    <id value="bundle-jurisdiction-fetal-death-not-named"/>
    <meta>
        <profile value="http://hl7.org/fhir/us/bfdr/StructureDefinition/Bundle-document-bfdr"/>
    </meta>
    <identifier>
        <system value="urn:ietf:rfc:3986"/>
        <value value="urn:uuid:8184a291-9e10-498d-9bc8-350f8d0ea832"/>
    </identifier>
    <type value="document"/>
    <timestamp value="2019-01-20T09:51:14.637+00:00"/>
    <entry>
        <fullUrl value="Composition/composition-jurisdiction-fetal-death-not-named"/>
        <resource>
            <Composition xmlns="http://hl7.org/fhir">
                <id value="composition-jurisdiction-fetal-death-not-named"/>
                <meta>
                    <profile value="http://hl7.org/fhir/us/bfdr/StructureDefinition/Composition-jurisdiction-fetal-death-report"/>
                </meta>
                <extension url="http://hl7.org/fhir/us/bfdr/StructureDefinition/Extension-date-received-by-registrar">
                    <valueDateTime value="2019-02-12"/>
                </extension>
                <identifier>
                    <value value="c03eab8c-11e8-4d0c-ad2a-b385395e27da"/>
                </identifier>
                <status value="final"/>
                <type>
                    <coding>
                        <system value="http://loinc.org"/>
                        <code value="92010-8"/>
                        <display value="Jurisdiction fetal death report Document"/>
                    </coding>
                </type>
                <subject>
                    <reference value="Patient/patient-decedent-fetus-not-named"/>
                    <display value="Patient - Decedent Fetus (Fetus Not Named)"/>
                </subject>
                <encounter>
                    <reference value="Encounter/encounter-maternity-carmen-teresa-lee"/>
                    <display value="Encounter - Maternity (Carmen Teresa Lee)"/>
                </encounter>
                <date value="2019-01-09"/>
                <author>
                    <reference value="Practitioner/practitioner-live-birth-fetal-death-jessica-leung"/>
                    <display value="Practitioner - Live Birth Fetal Death (Jessica Leung)"/>
                </author>
                <title value="Jurisdiction fetal death report Document"/>
                <section>
                    <title value="Mother (prenatal) Section on the Fetal Death Report"/>
                    <code>
                        <coding>
                            <system value="http://loinc.org"/>
                            <code value="57073-9"/>
                            <display value="Prenatal records"/>
                        </coding>
                    </code>
                    <focus>
                        <reference value="Patient/patient-mother-carmen-teresa-lee"/>
                        <display value="Patient - Mother (Carmen Teresa Lee)"/>
                    </focus>
                    <entry>
                        <reference value="Observation/observation-planned-to-deliver-at-home-not-named"/>
                        <display value="Observation - Planned to Deliver at Home (Carmen Teresa Lee)"/>
                    </entry>
                    <entry>
                        <reference value="Observation/observation-date-of-first-prenatal-care-visit-carmen-teresa-lee"/>
                        <display value="Observation - Date of First Prenatal Care Visit (Carmen Teresa Lee)"/>
                    </entry>
                    <entry>
                        <reference value="Observation/observation-last-menstrual-period-carmen-teresa-lee"/>
                        <display value="Observation - Last Menstrual Period (Carmen Teresa Lee)"/>
                    </entry>
                    <entry>
                        <reference value="Observation/observation-number-births-now-living-carmen-teresa-lee"/>
                        <display value="Observation - Number Births Now Living (Carmen Teresa Lee)"/>
                    </entry>
                    <entry>
                        <reference value="Observation/observation-number-births-now-dead-carmen-teresa-lee"/>
                        <display value="Observation - Number Births Now Dead (Carmen Teresa Lee)"/>
                    </entry>
                    <entry>
                        <reference value="Observation/observation-date-of-last-live-birth-carmen-teresa-lee"/>
                        <display value="Observation - Date of Last Live Birth (Carmen Teresa Lee)"/>
                    </entry>
                    <entry>
                        <reference value="Observation/observation-mother-height-carmen-teresa-lee"/>
                        <display value="Observation - Mother Height (Carmen Teresa Lee)"/>
                    </entry>
                    <entry>
                        <reference value="Observation/observation-mother-prepregnancy-weight-carmen-teresa-lee"/>
                        <display value="Observation - Mother Prepregnancy Weight (Carmen Teresa Lee)"/>
                    </entry>
                    <entry>
                        <reference value="Observation/observation-mother-received-wic-food-carmen-teresa-lee"/>
                        <display value="Observation - Mother Received WIC Food (Carmen Teresa Lee)"/>
                    </entry>
                    <entry>
                        <reference value="Observation/observation-cig-smoking-pregnancy-1-carmen-teresa-lee"/>
                        <display value="Observation - Cigarette Smoking Before/During Pregnancy (3 months prior: Carmen Teresa Lee)"/>
                    </entry>
                    <entry>
                        <reference value="Observation/observation-cig-smoking-pregnancy-2-carmen-teresa-lee"/>
                        <display value="Observation - Cigarette Smoking Before/During Pregnancy (first 3 months: Carmen Teresa Lee)"/>
                    </entry>
                    <entry>
                        <reference value="Observation/observation-cig-smoking-pregnancy-3-carmen-teresa-lee"/>
                        <display value="Observation - Cigarette Smoking Before/During Pregnancy (last 3 months: Carmen Teresa Lee)"/>
                    </entry>
                    <entry>
                        <reference value="Observation/observation-cig-smoking-pregnancy-4-carmen-teresa-lee"/>
                        <display value="Observation - Cigarette Smoking Before/During Pregnancy (second 3 months: Carmen Teresa Lee)"/>
                    </entry>
                </section>
                <section>
                    <title value="Medical and Health Information on the Fetal Death Report"/>
                    <code>
                        <coding>
                            <system value="http://loinc.org"/>
                            <code value="55752-0"/>
                            <display value="Clinical information"/>
                        </coding>
                    </code>
                    <focus>
                        <reference value="Patient/patient-mother-carmen-teresa-lee"/>
                        <display value="Patient - Mother (Carmen Teresa Lee)"/>
                    </focus>
                    <entry>
                        <reference value="Observation/observation-pregnancy-risk-factor-carmen-teresa-lee-1"/>
                        <display value="Observation - Pregnancy Risk Factor (Carmen Teresa Lee: Pregnancy-induced hypertension)"/>
                    </entry>
                    <entry>
                        <reference value="Observation/observation-pregnancy-risk-factor-carmen-teresa-lee-2"/>
                        <display value="Observation - Pregnancy Risk Factor (Carmen Teresa Lee: Fertility enhancing drug therapy)"/>
                    </entry>
                    <entry>
                        <reference value="Observation/observation-number-previous-cesareans-carmen-teresa-lee"/>
                        <display value="Observation - Number Previous Cesareans (Carmen Teresa Lee)"/>
                    </entry>
                    <entry>
                        <reference value="Condition/condition-fetal-presentation-not-named"/>
                        <display value="Condition - Fetal Presentation (Fetus Not Named)"/>
                    </entry>
                    <entry>
                        <reference value="Procedure/procedure-final-route-method-delivery-not-named"/>
                        <display value="Procedure - Final Route and Method of Delivery (Fetus Not Named)"/>
                    </entry>
                    <entry>
                        <reference value="Condition/condition-maternal-morbidity-carmen-teresa-lee"/>
                        <display value="Condition - Maternal Morbidity (Carmen Teresa Lee)"/>
                    </entry>
                </section>
                <section>
                    <title value="Fetal delivery information section on the Fetal Death Report"/>
                    <code>
                        <coding>
                            <system value="http://loinc.org"/>
                            <code value="76400-1"/>
                            <display value="Fetal delivery information Document [US Standard Report of Fetal Death]"/>
                        </coding>
                    </code>
                    <entry>
                        <reference value="Observation/observation-birth-weight-not-named"/>
                        <display value="Observation - Birth Weight (Fetus Not Named)"/>
                    </entry>
                    <entry>
                        <reference value="Observation/observation-gestational-age-at-delivery-not-named"/>
                        <display value="Observation - Gestational Age at Delivery (Fetus Not Named)"/>
                    </entry>
                    <entry>
                        <reference value="Condition/condition-fetal-death-cause-or-condition-not-named"/>
                        <display value="Condition - Fetal Death Cause or Condition (Fetus Not Named)"/>
                    </entry>
                    <entry>
                        <reference value="Condition/condition-fetal-death-other-significant-cause-not-named"/>
                        <display value="Example of Condition-fetal-death-other-significant-cause profile (Fetus Not Named)"/>
                    </entry>
                    <entry>
                        <reference value="Observation/observation-estimated-fetal-death-time-point-not-named"/>
                        <display value="Example of Observation-estimated-fetal-death-time-point profile (Fetus Not Named)"/>
                    </entry>
                    <entry>
                        <reference value="Observation/observation-autopsy-performed-not-named"/>
                        <display value="Example of Observation-autopsy-performed profile (Fetus Not Named)"/>
                    </entry>
                    <entry>
                        <reference value="Observation/observation-histological-placental-exam-performed-not-named"/>
                        <display value="Observation - Histological Placental Exam Performed (Fetus Not Named)"/>
                    </entry>
                    <entry>
                        <reference value="Observation/observation-autopsy-histological-exam-results-used-not-named"/>
                        <display value="Observation - Autopsy or Histological Exam Results Used"/>
                    </entry>
                    <entry>
                        <reference value="Observation/observation-plurality-carmen-teresa-lee"/>
                        <display value="Observation - Plurality (Carmen Teresa Lee)"/>
                    </entry>
                </section>
                <section>
                    <title value="Mother Administrative Section on the Fetal Death Report"/>
                    <code>
                        <coding>
                            <system value="http://loinc.org"/>
                            <code value="92014-0"/>
                            <display value="Mother's administrative information"/>
                        </coding>
                    </code>
                    <focus>
                        <reference value="Patient/patient-mother-carmen-teresa-lee"/>
                        <display value="Patient - Mother (Carmen Teresa Lee)"/>
                    </focus>
                    <entry>
                        <reference value="Observation/observation-parent-education-level-carmen-teresa-lee"/>
                        <display value="Observation - Parent Education Level (Carmen Teresa Lee)"/>
                    </entry>
                </section>
                <section>
                    <title value="Edit Flags Section"/>
                    <code>
                        <coding>
                            <system value="http://loinc.org"/>
                            <code value="92012-4"/>
                            <display value="Edit flags section"/>
                        </coding>
                    </code>
                    <entry>
                        <reference value="Observation/observation-edit-birth-weight-babyg-quinn"/>
                        <display value="Observation - Edit flag birthweight"/>
                    </entry>
                    <entry>
                        <reference value="Observation/observation-edit-flag-estimate-of-gestation-example"/>
                        <display value="Observation - Edit flag estimate of gestation"/>
                    </entry>
                    <entry>
                        <reference value="Observation/observation-edit-flag-mothers-date-of-birth-example"/>
                        <display value="Observation - Edit flag mother's date of birth"/>
                    </entry>
                    <entry>
                        <reference value="Observation/observation-edit-flag-mothers-education-example"/>
                        <display value="Observation - Edit flag mother's education"/>
                    </entry>
                    <entry>
                        <reference value="Observation/observation-edit-flag-mothers-height-example"/>
                        <display value="Observation - Edit flag mother's height"/>
                    </entry>
                    <entry>
                        <reference value="Observation/observation-edit-flag-mothers-prepregnancy-weight-example"/>
                        <display value="Observation - Edit flag mother's prepregnancy weight"/>
                    </entry>
                    <entry>
                        <reference value="Observation/observation-edit-flag-number-previous-cesareans-example"/>
                        <display value="Observation - Edit flag number previous cesareans"/>
                    </entry>
                    <entry>
                        <reference value="Observation/observation-edit-flag-plurality-example"/>
                        <display value="Observation - Edit flag plurality"/>
                    </entry>
                </section>
            </Composition>
        </resource>
    </entry>
    <entry>
        <fullUrl value="Observation/observation-cig-smoking-pregnancy-3-carmen-teresa-lee"/>
        <resource>
            <Observation>
                <id value="observation-cig-smoking-pregnancy-3-carmen-teresa-lee"/>
                <meta>
                    <versionId value="2"/>
                    <lastUpdated value="2020-08-20T23:21:01.313+00:00"/>
                    <source value="#vHoOHVNCWCLvTXrY"/>
                    <profile value="http://hl7.org/fhir/us/bfdr/StructureDefinition/Observation-cigarette-smoking-before-during-pregnancy"/>
                </meta>
                <status value="final"/>
                <code>
                    <coding>
                        <system value="http://loinc.org"/>
                        <code value="87299-4"/>
                        <display value="Cigarettes smoked per day by Mother--2nd trimester"/>
                    </coding>
                    <text value="Cigarettes smoked per day by Mother--2nd trimester"/>
                </code>
                <subject>
                    <reference value="Patient/patient-child-babyg-quinn"/>
                    <display value="BabyG Quinn"/>
                </subject>
                <focus>
                    <reference value="Patient/patient-mother-carmen-teresa-lee"/>
                    <display value="Patient - Mother (Carmen Teresa Lee)"/>
                </focus>
                <valueInteger value="1"/>
            </Observation>
        </resource>
    </entry>
    <entry>
        <fullUrl value="Observation/observation-number-births-now-living-carmen-teresa-lee"/>
        <resource>
            <Observation>
                <id value="observation-number-births-now-living-carmen-teresa-lee"/>
                <meta>
                    <versionId value="2"/>
                    <lastUpdated value="2020-08-20T23:21:02.326+00:00"/>
                    <source value="#w8CV1hMjqZwNR9iv"/>
                    <profile value="http://hl7.org/fhir/us/vr-common-library/StructureDefinition/Observation-number-births-now-living"/>
                </meta>
                <status value="final"/>
                <code>
                    <coding>
                        <system value="http://loinc.org"/>
                        <code value="11638-4"/>
                        <display value="[#] Births.still living"/>
                    </coding>
                    <text value="[#] Births.still living"/>
                </code>
                <subject>
                    <reference value="Patient/patient-mother-carmen-teresa-lee"/>
                    <display value="Patient - Mother (Carmen Teresa Lee)"/>
                </subject>
                <valueInteger value="1"/>
            </Observation>
        </resource>
    </entry>
    <entry>
        <fullUrl value="Observation/observation-autopsy-histological-exam-results-used-not-named"/>
        <resource>
            <Observation>
                <id value="observation-autopsy-histological-exam-results-used-not-named"/>
                <meta>
                    <versionId value="2"/>
                    <lastUpdated value="2020-08-20T23:21:01.073+00:00"/>
                    <source value="#ClX7axMWWVbnQBm5"/>
                    <profile value="http://hl7.org/fhir/us/bfdr/StructureDefinition/Observation-autopsy-histological-exam-results-used"/>
                </meta>
                <status value="final"/>
                <code>
                    <coding>
                        <system value="http://loinc.org"/>
                        <code value="74498-7"/>
                        <display value="Autopsy or histological placental examination results were used [US Standard Report of Fetal Death]"/>
                    </coding>
                </code>
                <subject>
                    <reference value="Patient/patient-decedent-fetus-not-named"/>
                    <display value="Patient - Decedent Fetus (Fetus Not Named)"/>
                </subject>
                <valueBoolean value="true"/>
            </Observation>
        </resource>
    </entry>
    <entry>
        <fullUrl value="Observation/observation-cig-smoking-pregnancy-4-carmen-teresa-lee"/>
        <resource>
            <Observation>
                <id value="observation-cig-smoking-pregnancy-4-carmen-teresa-lee"/>
                <meta>
                    <versionId value="2"/>
                    <lastUpdated value="2020-08-20T23:21:01.294+00:00"/>
                    <source value="#3onUy021ffMiEjPP"/>
                    <profile value="http://hl7.org/fhir/us/bfdr/StructureDefinition/Observation-cigarette-smoking-before-during-pregnancy"/>
                </meta>
                <status value="final"/>
                <code>
                    <coding>
                        <system value="http://loinc.org"/>
                        <code value="64795-8"/>
                        <display value="In the last 3 months of your pregnancy, how many cigarettes did you smoke on an average day [PhenX]"/>
                    </coding>
                    <text value="In the last 3 months of your pregnancy, how many cigarettes did you smoke on an average day [PhenX]"/>
                </code>
                <subject>
                    <reference value="Patient/patient-child-babyg-quinn"/>
                    <display value="BabyG Quinn"/>
                </subject>
                <focus>
                    <reference value="Patient/patient-mother-carmen-teresa-lee"/>
                    <display value="Patient - Mother (Carmen Teresa Lee)"/>
                </focus>
                <valueInteger value="0"/>
            </Observation>
        </resource>
    </entry>
    <entry>
        <fullUrl value="Observation/observation-number-births-now-dead-carmen-teresa-lee"/>
        <resource>
            <Observation>
                <id value="observation-number-births-now-dead-carmen-teresa-lee"/>
                <meta>
                    <versionId value="2"/>
                    <lastUpdated value="2020-08-20T23:21:02.255+00:00"/>
                    <source value="#qtFrqE498oNpkiwq"/>
                    <profile value="http://hl7.org/fhir/us/vr-common-library/StructureDefinition/Observation-number-births-now-dead"/>
                </meta>
                <status value="final"/>
                <code>
                    <coding>
                        <system value="http://loinc.org"/>
                        <code value="68496-9"/>
                        <display value="Previous live births now dead #"/>
                    </coding>
                    <text value="Previous live births now dead #"/>
                </code>
                <subject>
                    <reference value="Patient/patient-mother-carmen-teresa-lee"/>
                    <display value="Patient - Mother (Carmen Teresa Lee)"/>
                </subject>
                <valueInteger value="0"/>
            </Observation>
        </resource>
    </entry>
    <entry>
        <fullUrl value="Observation/observation-cig-smoking-pregnancy-2-carmen-teresa-lee"/>
        <resource>
            <Observation>
                <id value="observation-cig-smoking-pregnancy-2-carmen-teresa-lee"/>
                <meta>
                    <versionId value="2"/>
                    <lastUpdated value="2020-08-20T23:21:01.268+00:00"/>
                    <source value="#MLehTe9qPYtL8agx"/>
                    <profile value="http://hl7.org/fhir/us/bfdr/StructureDefinition/Observation-cigarette-smoking-before-during-pregnancy"/>
                </meta>
                <status value="final"/>
                <code>
                    <coding>
                        <system value="http://loinc.org"/>
                        <code value="87298-6"/>
                        <display value="Cigarettes smoked per day by Mother--1st trimester"/>
                    </coding>
                    <text value="Cigarettes smoked per day by Mother--1st trimester"/>
                </code>
                <subject>
                    <reference value="Patient/patient-child-babyg-quinn"/>
                    <display value="BabyG Quinn"/>
                </subject>
                <focus>
                    <reference value="Patient/patient-mother-carmen-teresa-lee"/>
                    <display value="Patient - Mother (Carmen Teresa Lee)"/>
                </focus>
                <valueInteger value="0"/>
            </Observation>
        </resource>
    </entry>
    <entry>
        <fullUrl value="Observation/observation-cig-smoking-pregnancy-1-carmen-teresa-lee"/>
        <resource>
            <Observation>
                <id value="observation-cig-smoking-pregnancy-1-carmen-teresa-lee"/>
                <meta>
                    <versionId value="2"/>
                    <lastUpdated value="2020-08-20T23:21:01.253+00:00"/>
                    <source value="#qYWIGW1f05h9gXRw"/>
                    <profile value="http://hl7.org/fhir/us/bfdr/StructureDefinition/Observation-cigarette-smoking-before-during-pregnancy"/>
                </meta>
                <status value="final"/>
                <code>
                    <coding>
                        <system value="http://loinc.org"/>
                        <code value="64794-1"/>
                        <display value="In the 3 months before you got pregnant, how many cigarettes did you smoke on an average day [PhenX]"/>
                    </coding>
                    <text value="In the 3 months before you got pregnant, how many cigarettes did you smoke on an average day [PhenX]"/>
                </code>
                <subject>
                    <reference value="Patient/patient-child-babyg-quinn"/>
                    <display value="BabyG Quinn"/>
                </subject>
                <focus>
                    <reference value="Patient/patient-mother-carmen-teresa-lee"/>
                    <display value="Patient - Mother (Carmen Teresa Lee)"/>
                </focus>
                <valueInteger value="0"/>
            </Observation>
        </resource>
    </entry>
    <entry>
        <fullUrl value="Observation/observation-pregnancy-risk-factor-carmen-teresa-lee-2"/>
        <resource>
            <Observation>
                <id value="observation-pregnancy-risk-factor-carmen-teresa-lee-2"/>
                <meta>
                    <versionId value="3"/>
                    <lastUpdated value="2020-08-31T21:24:32.157+00:00"/>
                    <source value="#dsFQ4GfDY3Tp9pu3"/>
                    <profile value="http://hl7.org/fhir/us/vr-common-library/StructureDefinition/Observation-pregnancy-risk-factor"/>
                </meta>
                <status value="final"/>
                <code>
                    <coding>
                        <system value="http://loinc.org"/>
                        <code value="73775-9"/>
                        <display value="Mothers Risk factors in this pregnancy [US Standard Certificate of Live Birth]"/>
                    </coding>
                    <text value="Mothers Risk factors in this pregnancy [US Standard Certificate of Live Birth]"/>
                </code>
                <subject>
                    <reference value="Patient/patient-mother-carmen-teresa-lee"/>
                    <display value="Patient - Mother (Carmen Teresa Lee)"/>
                </subject>
                <valueCodeableConcept>
                    <coding>
                        <system value="http://snomed.info/sct"/>
                        <code value="11687002"/>
                        <display value="Gestational diabetes mellitus (disorder)"/>
                    </coding>
                    <text value="Gestational diabetes mellitus (disorder)"/>
                </valueCodeableConcept>
            </Observation>
        </resource>
    </entry>
    <entry>
        <fullUrl value="Observation/observation-pregnancy-risk-factor-carmen-teresa-lee-1"/>
        <resource>
            <Observation>
                <id value="observation-pregnancy-risk-factor-carmen-teresa-lee-1"/>
                <meta>
                    <versionId value="3"/>
                    <lastUpdated value="2020-08-31T21:24:32.158+00:00"/>
                    <source value="#UJX7Js6aq4Lf7wnI"/>
                    <profile value="http://hl7.org/fhir/us/vr-common-library/StructureDefinition/Observation-pregnancy-risk-factor"/>
                </meta>
                <status value="final"/>
                <code>
                    <coding>
                        <system value="http://loinc.org"/>
                        <code value="73775-9"/>
                        <display value="Mothers Risk factors in this pregnancy [US Standard Certificate of Live Birth]"/>
                    </coding>
                    <text value="Mothers Risk factors in this pregnancy [US Standard Certificate of Live Birth]"/>
                </code>
                <subject>
                    <reference value="Patient/patient-mother-carmen-teresa-lee"/>
                    <display value="Patient - Mother (Carmen Teresa Lee)"/>
                </subject>
                <valueCodeableConcept>
                    <coding>
                        <system value="http://snomed.info/sct"/>
                        <code value="38341003"/>
                        <display value="Hypertensive disorder, systemic arterial (disorder)"/>
                    </coding>
                    <text value="Hypertensive disorder, systemic arterial (disorder)"/>
                </valueCodeableConcept>
            </Observation>
        </resource>
    </entry>
    <entry>
        <fullUrl value="Observation/observation-number-previous-cesareans-carmen-teresa-lee"/>
        <resource>
            <Observation>
                <id value="observation-number-previous-cesareans-carmen-teresa-lee"/>
                <meta>
                    <versionId value="2"/>
                    <lastUpdated value="2020-08-20T23:21:02.461+00:00"/>
                    <source value="#sb6tMP68siy25z9s"/>
                    <profile value="http://hl7.org/fhir/us/vr-common-library/StructureDefinition/Observation-number-previous-cesareans"/>
                </meta>
                <status value="final"/>
                <code>
                    <coding>
                        <system value="http://loinc.org"/>
                        <code value="68497-7"/>
                        <display value="Previous cesarean deliveries #"/>
                    </coding>
                    <text value="Previous cesarean deliveries #"/>
                </code>
                <subject>
                    <reference value="Patient/patient-mother-carmen-teresa-lee"/>
                    <display value="Patient - Mother (Carmen Teresa Lee)"/>
                </subject>
                <valueInteger value="1"/>
            </Observation>
        </resource>
    </entry>
    <entry>
        <fullUrl value="Condition/condition-fetal-presentation-not-named"/>
        <resource>
            <Condition>
                <id value="condition-fetal-presentation-not-named"/>
                <meta>
                    <versionId value="2"/>
                    <lastUpdated value="2020-08-20T23:20:37.831+00:00"/>
                    <source value="#XBzUiU6u7Yca3xXQ"/>
                    <profile value="http://hl7.org/fhir/us/bfdr/StructureDefinition/Condition-fetal-presentation"/>
                </meta>
                <category>
                    <coding>
                        <system value="http://terminology.hl7.org/CodeSystem/condition-category"/>
                        <code value="encounter-diagnosis"/>
                        <display value="Encounter Diagnosis"/>
                    </coding>
                </category>
                <code>
                    <coding>
                        <system value="http://snomed.info/sct"/>
                        <code value="6096002"/>
                        <display value="Breech presentation (finding)"/>
                    </coding>
                </code>
                <subject>
                    <reference value="Patient/patient-decedent-fetus-not-named"/>
                    <display value="Patient - Decedent Fetus (Fetus Not Named)"/>
                </subject>
            </Condition>
        </resource>
    </entry>
    <entry>
        <fullUrl value="Practitioner/practitioner-live-birth-fetal-death-jessica-leung"/>
        <resource>
            <Practitioner>
                <id value="practitioner-live-birth-fetal-death-jessica-leung"/>
                <meta>
                    <versionId value="3"/>
                    <lastUpdated value="2020-09-01T04:51:20.377+00:00"/>
                    <source value="#x9HdxEbji4aiCUcD"/>
                    <profile value="http://hl7.org/fhir/us/vr-common-library/StructureDefinition/Practitioner-live-birth-fetal-death"/>
                </meta>
                <identifier>
                    <system value="http://hl7.org/fhir/sid/us-npi"/>
                    <value value="223347055"/>
                </identifier>
                <name>
                    <family value="Jessica"/>
                    <given value="Leung"/>
                </name>
                <qualification>
                    <code>
                        <coding>
                            <system value="http://terminology.hl7.org/CodeSystem/v3-NullFlavor"/>
                            <code value="OTH"/>
                            <display value="other"/>
                        </coding>
                        <text value="Birth Clerk"/>
                    </code>
                </qualification>
            </Practitioner>
        </resource>
    </entry>
    <entry>
        <fullUrl value="Procedure/procedure-final-route-method-delivery-not-named"/>
        <resource>
            <Procedure>
                <id value="procedure-final-route-method-delivery-not-named"/>
                <meta>
                    <versionId value="2"/>
                    <lastUpdated value="2020-08-20T23:21:22.819+00:00"/>
                    <source value="#YYAoj96KgNAGEY2j"/>
                    <profile value="http://hl7.org/fhir/us/bfdr/StructureDefinition/Procedure-final-route-method-delivery"/>
                </meta>
                <status value="completed"/>
                <code>
                    <coding>
                        <system value="http://snomed.info/sct"/>
                        <code value="48782003"/>
                        <display value="Delivery normal (finding)"/>
                    </coding>
                    <text value="Spontaneous vaginal delivery"/>
                </code>
                <subject>
                    <reference value="Patient/patient-decedent-fetus-not-named"/>
                    <display value="Patient - Decedent Fetus (Fetus Not Named)"/>
                </subject>
                <performedPeriod>
                    <start value="2019-01-19T18:00:00-07:00"/>
                    <end value="2019-01-19T18:23:00-07:00"/>
                </performedPeriod>
            </Procedure>
        </resource>
    </entry>
    <entry>
        <fullUrl value="Observation/observation-plurality-carmen-teresa-lee"/>
        <resource>
            <Observation>
                <id value="observation-plurality-carmen-teresa-lee"/>
                <meta>
                    <versionId value="2"/>
                    <lastUpdated value="2020-08-20T23:21:02.746+00:00"/>
                    <source value="#3HQmN7i0tRnIBUgE"/>
                    <profile value="http://hl7.org/fhir/us/vr-common-library/StructureDefinition/Observation-plurality"/>
                </meta>
                <status value="final"/>
                <code>
                    <coding>
                        <system value="http://loinc.org"/>
                        <code value="57722-1"/>
                        <display value="Birth plurality of Pregnancy"/>
                    </coding>
                </code>
                <subject>
                    <reference value="Patient/patient-mother-carmen-teresa-lee"/>
                    <display value="Patient - Mother (Carmen Teresa Lee)"/>
                </subject>
                <valueInteger value="1"/>
            </Observation>
        </resource>
    </entry>
    <entry>
        <fullUrl value="Condition/condition-maternal-morbidity-carmen-teresa-lee"/>
        <resource>
            <Condition>
                <id value="condition-maternal-morbidity-carmen-teresa-lee"/>
                <meta>
                    <versionId value="2"/>
                    <lastUpdated value="2020-08-20T23:20:37.850+00:00"/>
                    <source value="#l7tNEqjnTc7ZLZhL"/>
                    <profile value="http://hl7.org/fhir/us/bfdr/StructureDefinition/Condition-maternal-morbidity"/>
                </meta>
                <category>
                    <coding>
                        <system value="http://loinc.org"/>
                        <code value="73781-7"/>
                        <display value="Maternal morbidity [US Standard Certificate of Live Birth]"/>
                    </coding>
                </category>
                <code>
                    <coding>
                        <system value="http://snomed.info/sct"/>
                        <code value="260413007"/>
                        <display value="None"/>
                    </coding>
                    <text value="None"/>
                </code>
                <subject>
                    <reference value="Patient/patient-mother-carmen-teresa-lee"/>
                    <display value="Patient - Mother (Carmen Teresa Lee)"/>
                </subject>
            </Condition>
        </resource>
    </entry>
    <entry>
        <fullUrl value="Encounter/encounter-maternity-carmen-teresa-lee"/>
        <resource>
            <Encounter>
                <id value="encounter-maternity-carmen-teresa-lee"/>
                <meta>
                    <versionId value="6"/>
                    <lastUpdated value="2020-08-20T23:33:29.302+00:00"/>
                    <source value="#MgoY35EvKlGMojjb"/>
                    <profile value="http://hl7.org/fhir/us/bfdr/StructureDefinition/Encounter-maternity"/>
                </meta>
                <identifier>
                    <system value="http://hospital.smarthealthit.org"/>
                    <value value="8937015"/>
                </identifier>
                <status value="finished"/>
                <class>
                    <system value="http://terminology.hl7.org/CodeSystem/v3-ActCode"/>
                    <code value="IMP"/>
                    <display value="inpatient encounter"/>
                </class>
                <type>
                    <coding>
                        <system value="http://www.ama-assn.org/go/cpt"/>
                        <code value="99234"/>
                    </coding>
                    <text value="Under Observation or Inpatient Care Services (Including Admission and Discharge Services)"/>
                </type>
                <subject>
                    <reference value="Patient/patient-mother-carmen-teresa-lee"/>
                    <display value="Patient - Mother (Carmen Teresa Lee)"/>
                </subject>
                <participant>
                    <type>
                        <coding>
                            <system value="http://loinc.org"/>
                            <code value="87286-1"/>
                            <display value="Birth attendant [Extended Identifier]"/>
                        </coding>
                    </type>
                    <individual>
                        <reference value="Practitioner/practitioner-live-birth-fetal-death-janet-seito"/>
                        <display value="Practitioner - Live Birth Fetal Death (Janet Seito, MD)"/>
                    </individual>
                </participant>
                <period>
                    <start value="2019-01-08T10:00:00-07:00"/>
                    <end value="2019-01-09T17:00:00-07:00"/>
                </period>
                <location>
                    <location>
                        <reference value="Location/location-south-hospital"/>
                        <display value="Location - US Core Location (South Hospital)"/>
                    </location>
                    <physicalType>
                        <coding>
                            <system value="http://snomed.info/sct"/>
                            <code value="22232009"/>
                            <display value="Hospital"/>
                        </coding>
                    </physicalType>
                </location>
                <serviceProvider>
                    <reference value="Organization/organization-south-hospital"/>
                    <display value="Organization - US Core Organization (South Hospital Organization)"/>
                </serviceProvider>
            </Encounter>
        </resource>
    </entry>
    <entry>
        <fullUrl value="Observation/observation-parent-education-level-carmen-teresa-lee"/>
        <resource>
            <Observation>
                <id value="observation-parent-education-level-carmen-teresa-lee"/>
                <meta>
                    <versionId value="4"/>
                    <lastUpdated value="2020-08-20T23:21:02.673+00:00"/>
                    <source value="#WCUHOIED0bCMYPDs"/>
                    <profile value="http://hl7.org/fhir/us/vr-common-library/StructureDefinition/Observation-parent-education-level"/>
                </meta>
                <status value="final"/>
                <code>
                    <coding>
                        <system value="http://loinc.org"/>
                        <code value="57712-2"/>
                        <display value="Highest level of education Mother"/>
                    </coding>
                </code>
                <subject>
                    <reference value="Patient/patient-decedent-fetus-not-named"/>
                    <display value="Patient - Decedent Fetus (Fetus Not Named)"/>
                </subject>
                <focus>
                    <reference value="RelatedPerson/relatedperson-mother-carmen-teresa-lee"/>
                    <display value="Patient - Mother (Carmen Teresa Lee)"/>
                </focus>
                <valueCodeableConcept>
                    <coding>
                        <system value="urn:oid:2.16.840.1.114222.4.5.274"/>
                        <code value="PHC1449"/>
                        <display value="9th through 12th grade; no diploma"/>
                    </coding>
                    <text value="9th through 12th grade; no diploma"/>
                </valueCodeableConcept>
            </Observation>
        </resource>
    </entry>
    <entry>
        <fullUrl value="Observation/observation-mother-height-carmen-teresa-lee"/>
        <resource>
            <Observation>
                <id value="observation-mother-height-carmen-teresa-lee"/>
                <meta>
                    <versionId value="2"/>
                    <lastUpdated value="2020-08-20T23:21:02.141+00:00"/>
                    <source value="#F5VDmASJwdMsTv1P"/>
                    <profile value="http://hl7.org/fhir/us/vr-common-library/StructureDefinition/Observation-mother-height"/>
                </meta>
                <status value="final"/>
                <category>
                    <coding>
                        <system value="http://terminology.hl7.org/CodeSystem/observation-category"/>
                        <code value="vital-signs"/>
                    </coding>
                </category>
                <code>
                    <coding>
                        <system value="http://loinc.org"/>
                        <code value="3137-7"/>
                        <display value="Body height Measured"/>
                    </coding>
                </code>
                <subject>
                    <reference value="Patient/patient-mother-carmen-teresa-lee"/>
                    <display value="Patient - Mother (Carmen Teresa Lee)"/>
                </subject>
                <effectiveDateTime value="2019-01-10"/>
                <valueQuantity>
                    <value value="65"/>
                    <system value="http://unitsofmeasure.org"/>
                    <code value="[in_i]"/>
                </valueQuantity>
            </Observation>
        </resource>
    </entry>
    <entry>
        <fullUrl value="Condition/condition-fetal-death-cause-or-condition-not-named"/>
        <resource>
            <Condition>
                <id value="condition-fetal-death-cause-or-condition-not-named"/>
                <meta>
                    <versionId value="2"/>
                    <lastUpdated value="2020-08-20T23:20:37.899+00:00"/>
                    <source value="#dqY22NCSw6bHluR6"/>
                    <profile value="http://hl7.org/fhir/us/bfdr/StructureDefinition/Condition-fetal-death-cause-or-condition"/>
                </meta>
                <category>
                    <coding>
                        <system value="http://loinc.org"/>
                        <code value="76060-3"/>
                        <display value="Initiating cause or condition of fetal death [US Standard Report of Fetal Death]"/>
                    </coding>
                </category>
                <code>
                    <coding>
                        <system value="http://snomed.info/sct"/>
                        <code value="44223004"/>
                        <display value="Premature rupture of membranes (disorder)"/>
                    </coding>
                    <text value="Premature rupture of membranes (disorder)"/>
                </code>
                <subject>
                    <reference value="Patient/patient-decedent-fetus-not-named"/>
                    <display value="Patient - Decedent Fetus (Fetus Not Named)"/>
                </subject>
            </Condition>
        </resource>
    </entry>
    <entry>
        <fullUrl value="Patient/patient-decedent-fetus-not-named"/>
        <resource>
            <Patient>
                <id value="patient-decedent-fetus-not-named"/>
                <meta>
                    <versionId value="3"/>
                    <lastUpdated value="2020-08-20T04:45:30.157+00:00"/>
                    <source value="#ZNtZna7FMzPhWYo5"/>
                    <profile value="http://hl7.org/fhir/us/vr-common-library/StructureDefinition/Patient-decedent-fetus"/>
                </meta>
                <text>
                    <status value="generated"/>
                    <div xmlns="http://www.w3.org/1999/xhtml">
                        <div class="hapiHeaderText">
                            <b>null </b>
                        </div>
                        <table class="hapiPropertyTable">
                            <tbody>
                                <tr>
                                    <td>Identifier</td>
                                    <td>9932702</td>
                                </tr>
                                <tr>
                                    <td>Date of birth</td>
                                    <td>
                                        <span>09 January 2019</span>
                                    </td>
                                </tr>
                            </tbody>
                        </table>
                    </div>
                </text>
                <extension url="http://hl7.org/fhir/us/core/StructureDefinition/us-core-birthsex">
                    <valueCode value="F"/>
                </extension>
                <extension url="http://hl7.org/fhir/StructureDefinition/patient-birthPlace">
                    <valueAddress>
                        <city value="Ann Arbor"/>
                        <state value="MI"/>
                        <postalCode value="48103"/>
                    </valueAddress>
                </extension>
                <identifier>
                    <use value="usual"/>
                    <type>
                        <coding>
                            <system value="http://terminology.hl7.org/CodeSystem/v2-0203"/>
                            <code value="MR"/>
                            <display value="Medical Record Number"/>
                        </coding>
                    </type>
                    <system value="http://hospital.smarthealthit.org"/>
                    <value value="9932702"/>
                </identifier>
                <name>
                    <family value="UNK">
                        <extension url="http://hl7.org/fhir/StructureDefinition/data-absent-reason">
                            <valueCode value="not-applicable"/>
                        </extension>
                    </family>
                </name>
                <gender value="female"/>
                <birthDate value="2019-01-09">
                    <extension url="http://hl7.org/fhir/StructureDefinition/patient-birthTime">
                        <valueDateTime value="2019-01-09T18:23:00-07:00"/>
                    </extension>
                </birthDate>
                <deceasedBoolean value="true"/>
            </Patient>
        </resource>
    </entry>
    <entry>
        <fullUrl value="Observation/observation-planned-to-deliver-at-home-not-named"/>
        <resource>
            <Observation>
                <id value="observation-planned-to-deliver-at-home-not-named"/>
                <meta>
                    <versionId value="2"/>
                    <lastUpdated value="2020-08-20T23:21:02.707+00:00"/>
                    <source value="#KB5zY00ErnkNVKrY"/>
                    <profile value="http://hl7.org/fhir/us/bfdr/StructureDefinition/Observation-planned-to-deliver-at-home"/>
                </meta>
                <status value="final"/>
                <code>
                    <coding>
                        <system value="http://loinc.org"/>
                        <code value="73765-0"/>
                        <display value="Mother Planned to deliver at home [US Standard Certificate of Live Birth]"/>
                    </coding>
                    <text value="Planned to deliver at home?"/>
                </code>
                <subject>
                    <reference value="Patient/patient-decedent-fetus-not-named"/>
                    <display value="Patient - Decedent Fetus (Fetus Not Named)"/>
                </subject>
                <focus>
                    <reference value="Patient/patient-mother-carmen-teresa-lee"/>
                    <display value="Patient - Mother (Carmen Teresa Lee)"/>
                </focus>
                <valueBoolean value="false"/>
            </Observation>
        </resource>
    </entry>
    <entry>
        <fullUrl value="Condition/condition-fetal-death-other-significant-cause-not-named"/>
        <resource>
            <Condition>
                <id value="condition-fetal-death-other-significant-cause-not-named"/>
                <meta>
                    <versionId value="3"/>
                    <lastUpdated value="2020-08-20T23:20:37.866+00:00"/>
                    <source value="#p64CVZnuAOo9OwcY"/>
                    <profile value="http://hl7.org/fhir/us/bfdr/StructureDefinition/Condition-fetal-death-other-cause-or-condition"/>
                </meta>
                <category>
                    <coding>
                        <system value="http://loinc.org"/>
                        <code value="76061-1"/>
                        <display value="Other significant causes or conditions of fetal death [US Standard Report of Fetal Death]"/>
                    </coding>
                </category>
                <code>
                    <coding>
                        <system value="http://snomed.info/sct"/>
                        <code value="237292005"/>
                        <display value="Placental insufficiency (disorder)"/>
                    </coding>
                    <text value="Placental insufficiency (disorder)"/>
                </code>
                <subject>
                    <reference value="Patient/patient-decedent-fetus-not-named"/>
                    <display value="Patient - Decedent Fetus (Fetus Not Named)"/>
                </subject>
            </Condition>
        </resource>
    </entry>
    <entry>
        <fullUrl value="Observation/observation-autopsy-performed-not-named"/>
        <resource>
            <Observation>
                <id value="observation-autopsy-performed-not-named"/>
                <meta>
                    <versionId value="2"/>
                    <lastUpdated value="2020-08-20T23:21:01.059+00:00"/>
                    <source value="#84foCeqWI65WR49F"/>
                    <profile value="http://hl7.org/fhir/us/vr-common-library/StructureDefinition/Observation-autopsy-performed"/>
                </meta>
                <status value="final"/>
                <code>
                    <coding>
                        <system value="http://loinc.org"/>
                        <code value="73768-4"/>
                        <display value="Autopsy was performed [US Standard Report of Fetal Death]"/>
                    </coding>
                </code>
                <subject>
                    <reference value="Patient/patient-decedent-fetus-not-named"/>
                    <display value="Patient - Decedent Fetus (Fetus Not Named)"/>
                </subject>
                <valueCodeableConcept>
                    <coding>
                        <system value="http://snomed.info/sct"/>
                        <code value="719828003"/>
                        <display value="Autopsy not done"/>
                    </coding>
                </valueCodeableConcept>
            </Observation>
        </resource>
    </entry>
    <entry>
        <fullUrl value="Observation/observation-mother-prepregnancy-weight-carmen-teresa-lee"/>
        <resource>
            <Observation>
                <id value="observation-mother-prepregnancy-weight-carmen-teresa-lee"/>
                <meta>
                    <versionId value="2"/>
                    <lastUpdated value="2020-08-20T23:21:02.176+00:00"/>
                    <source value="#zqbCopBtjwsuXxEe"/>
                    <profile value="http://hl7.org/fhir/us/vr-common-library/StructureDefinition/Observation-mother-prepregnancy-weight"/>
                </meta>
                <status value="final"/>
                <category>
                    <coding>
                        <system value="http://terminology.hl7.org/CodeSystem/observation-category"/>
                        <code value="vital-signs"/>
                    </coding>
                </category>
                <code>
                    <coding>
                        <system value="http://loinc.org"/>
                        <code value="56077-1"/>
                        <display value="Body weight --pre current pregnancy"/>
                    </coding>
                </code>
                <subject>
                    <reference value="Patient/patient-mother-carmen-teresa-lee"/>
                    <display value="Patient - Mother (Carmen Teresa Lee)"/>
                </subject>
                <effectiveDateTime value="2019-05-20"/>
                <valueQuantity>
                    <value value="180"/>
                    <system value="http://unitsofmeasure.org"/>
                    <code value="[lb_av]"/>
                </valueQuantity>
            </Observation>
        </resource>
    </entry>
    <entry>
        <fullUrl value="Observation/observation-birth-weight-not-named"/>
        <resource>
            <Observation>
                <id value="observation-birth-weight-not-named"/>
                <meta>
                    <versionId value="3"/>
                    <lastUpdated value="2020-08-20T23:21:01.066+00:00"/>
                    <source value="#gwqRXDQuSFzxGU8S"/>
                    <profile value="http://hl7.org/fhir/us/vr-common-library/StructureDefinition/Observation-birth-weight"/>
                </meta>
                <status value="final"/>
                <code>
                    <coding>
                        <system value="http://loinc.org"/>
                        <code value="8339-4"/>
                        <display value="Birth weight Measured"/>
                    </coding>
                </code>
                <subject>
                    <reference value="Patient/patient-decedent-fetus-not-named"/>
                    <display value="Patient - Decedent Fetus (Fetus Not Named)"/>
                </subject>
                <valueQuantity>
                    <value value="1530"/>
                    <system value="http://unitsofmeasure.org"/>
                    <code value="g"/>
                </valueQuantity>
            </Observation>
        </resource>
    </entry>
    <entry>
        <fullUrl value="Observation/observation-histological-placental-exam-performed-not-named"/>
        <resource>
            <Observation>
                <id value="observation-histological-placental-exam-performed-not-named"/>
                <meta>
                    <versionId value="4"/>
                    <lastUpdated value="2020-08-20T23:21:01.838+00:00"/>
                    <source value="#DfNHMAWurYM6EU7p"/>
                    <profile value="http://hl7.org/fhir/us/bfdr/StructureDefinition/Observation-histological-placental-exam-performed"/>
                </meta>
                <status value="final"/>
                <code>
                    <coding>
                        <system value="http://loinc.org"/>
                        <code value="73767-6"/>
                        <display value="Histological placental examination was performed [US Standard Report of Fetal Death]"/>
                    </coding>
                </code>
                <subject>
                    <reference value="Patient/patient-decedent-fetus-not-named"/>
                    <display value="Patient - Decedent Fetus (Fetus Not Named)"/>
                </subject>
                <valueCodeableConcept>
                    <coding>
                        <system value="http://snomed.info/sct"/>
                        <code value="398166005"/>
                        <display value="Performed"/>
                    </coding>
                </valueCodeableConcept>
            </Observation>
        </resource>
    </entry>
    <entry>
        <fullUrl value="Observation/observation-gestational-age-at-delivery-not-named"/>
        <resource>
            <Observation>
                <id value="observation-gestational-age-at-delivery-not-named"/>
                <meta>
                    <versionId value="3"/>
                    <lastUpdated value="2020-08-20T23:21:01.643+00:00"/>
                    <source value="#afAsEtVoWAbsqbJU"/>
                    <profile value="http://hl7.org/fhir/us/vr-common-library/StructureDefinition/Observation-gestational-age-at-delivery"/>
                </meta>
                <status value="final"/>
                <code>
                    <coding>
                        <system value="http://loinc.org"/>
                        <code value="11884-4"/>
                        <display value="Gestational age Estimated"/>
                    </coding>
                </code>
                <subject>
                    <reference value="Patient/patient-decedent-fetus-not-named"/>
                    <display value="Patient - Decedent Fetus (Fetus Not Named)"/>
                </subject>
                <valueQuantity>
                    <value value="20"/>
                    <system value="http://unitsofmeasure.org"/>
                    <code value="wk"/>
                </valueQuantity>
            </Observation>
        </resource>
    </entry>
    <entry>
        <fullUrl value="Observation/observation-mother-received-wic-food-carmen-teresa-lee"/>
        <resource>
            <Observation>
                <id value="observation-mother-received-wic-food-carmen-teresa-lee"/>
                <meta>
                    <versionId value="2"/>
                    <lastUpdated value="2020-08-20T23:21:02.174+00:00"/>
                    <source value="#1YGwwxSUNKlpijED"/>
                    <profile value="http://hl7.org/fhir/us/bfdr/StructureDefinition/Observation-mother-received-wic-food"/>
                </meta>
                <status value="final"/>
                <code>
                    <coding>
                        <system value="http://loinc.org"/>
                        <code value="87303-4"/>
                        <display value="Mother WIC food recipient"/>
                    </coding>
                    <text value="Did mother get WIC food for herself during this pregnancy?"/>
                </code>
                <subject>
                    <reference value="Patient/patient-mother-carmen-teresa-lee"/>
                    <display value="Patient - Mother (Carmen Teresa Lee)"/>
                </subject>
                <valueBoolean value="false"/>
            </Observation>
        </resource>
    </entry>
    <entry>
        <fullUrl value="Observation/observation-date-of-first-prenatal-care-visit-carmen-teresa-lee"/>
        <resource>
            <Observation>
                <id value="observation-date-of-first-prenatal-care-visit-carmen-teresa-lee"/>
                <meta>
                    <versionId value="3"/>
                    <lastUpdated value="2020-08-20T23:21:01.426+00:00"/>
                    <source value="#ETE9mE9Yqe6xwurb"/>
                    <profile value="http://hl7.org/fhir/us/bfdr/StructureDefinition/Observation-date-of-first-prenatal-care-visit"/>
                </meta>
                <status value="final"/>
                <code>
                    <coding>
                        <system value="http://loinc.org"/>
                        <code value="69044-6"/>
                        <display value="Date first prenatal visit"/>
                    </coding>
                    <text value="Date of first prenatal care visit"/>
                </code>
                <subject>
                    <reference value="Patient/patient-decedent-fetus-not-named"/>
                    <display value="Patient - Decedent Fetus (Fetus Not Named)"/>
                </subject>
                <focus>
                    <reference value="Patient/patient-mother-carmen-teresa-lee"/>
                    <display value="Patient - Mother (Carmen Teresa Lee)"/>
                </focus>
                <valueDateTime value="2018-05-18"/>
            </Observation>
        </resource>
    </entry>
    <entry>
        <fullUrl value="Observation/observation-estimated-fetal-death-time-point-not-named"/>
        <resource>
            <Observation>
                <id value="observation-estimated-fetal-death-time-point-not-named"/>
                <meta>
                    <versionId value="3"/>
                    <lastUpdated value="2020-08-20T23:21:01.614+00:00"/>
                    <source value="#9e4w2FXQIGRGa7oJ"/>
                    <profile value="http://hl7.org/fhir/us/bfdr/StructureDefinition/Observation-estimated-fetal-death-time-point"/>
                </meta>
                <status value="final"/>
                <code>
                    <coding>
                        <system value="http://loinc.org"/>
                        <code value="73811-2"/>
                        <display value="Estimated timing of fetal death [US Standard Report of Fetal Death]"/>
                    </coding>
                </code>
                <subject>
                    <reference value="Patient/patient-decedent-fetus-not-named"/>
                    <display value="Patient - Decedent Fetus (Fetus Not Named)"/>
                </subject>
                <valueCodeableConcept>
                    <coding>
                        <system value="http://snomed.info/sct"/>
                        <code value="434631000124100"/>
                        <display value="Fetal intrapartum death after first assessment (event)"/>
                    </coding>
                    <text value="Died during labor, after first assessment"/>
                </valueCodeableConcept>
            </Observation>
        </resource>
    </entry>
    <entry>
        <fullUrl value="Observation/observation-date-of-last-live-birth-carmen-teresa-lee"/>
        <resource>
            <Observation>
                <id value="observation-date-of-last-live-birth-carmen-teresa-lee"/>
                <meta>
                    <versionId value="2"/>
                    <lastUpdated value="2020-08-20T23:21:01.522+00:00"/>
                    <source value="#AIQ7ET9tgRFQYN1P"/>
                    <profile value="http://hl7.org/fhir/us/bfdr/StructureDefinition/Observation-date-of-last-live-birth"/>
                </meta>
                <status value="final"/>
                <code>
                    <coding>
                        <system value="http://loinc.org"/>
                        <code value="68499-3"/>
                        <display value="Date last live birth"/>
                    </coding>
                    <text value="Date of last live birth"/>
                </code>
                <subject>
                    <reference value="Patient/patient-mother-carmen-teresa-lee"/>
                    <display value="Patient - Mother (Carmen Teresa Lee)"/>
                </subject>
                <valueDateTime value="2016-01-28"/>
            </Observation>
        </resource>
    </entry>
    <entry>
        <fullUrl value="Observation/observation-last-menstrual-period-carmen-teresa-lee"/>
        <resource>
            <Observation>
                <id value="observation-last-menstrual-period-carmen-teresa-lee"/>
                <meta>
                    <versionId value="2"/>
                    <lastUpdated value="2020-08-20T23:21:01.937+00:00"/>
                    <source value="#aN3HII4GeAl4YvHY"/>
                    <profile value="http://hl7.org/fhir/us/vr-common-library/StructureDefinition/Observation-last-menstrual-period"/>
                </meta>
                <status value="final"/>
                <code>
                    <coding>
                        <system value="http://loinc.org"/>
                        <code value="8665-2"/>
                        <display value="Last menstrual period start date"/>
                    </coding>
                    <text value="Last menstrual period start date"/>
                </code>
                <subject>
                    <reference value="Patient/patient-mother-carmen-teresa-lee"/>
                    <display value="Patient - Mother (Carmen Teresa Lee)"/>
                </subject>
                <valueDateTime value="2018-04-18"/>
            </Observation>
        </resource>
    </entry>
    <entry>
        <fullUrl value="Patient/patient-child-babyg-quinn"/>
        <resource>
            <Patient>
                <id value="patient-child-babyg-quinn"/>
                <meta>
                    <versionId value="7"/>
                    <lastUpdated value="2020-08-20T23:21:22.820+00:00"/>
                    <source value="#E6UKpJIkr0j0GC8t"/>
                    <profile value="http://hl7.org/fhir/us/vr-common-library/StructureDefinition/Patient-child"/>
                </meta>
                <text>
                    <status value="generated"/>
                    <div xmlns="http://www.w3.org/1999/xhtml">
                        <div class="hapiHeaderText">Baby G <b>QUINN </b>
                        </div>
                        <table class="hapiPropertyTable">
                            <tbody>
                                <tr>
                                    <td>Identifier</td>
                                    <td>9932702</td>
                                </tr>
                                <tr>
                                    <td>Date of birth</td>
                                    <td>
                                        <span>12 February 2019</span>
                                    </td>
                                </tr>
                            </tbody>
                        </table>
                    </div>
                </text>
                <extension url="http://hl7.org/fhir/us/core/StructureDefinition/us-core-race">
                    <extension url="ombCategory">
                        <valueCoding>
                            <system value="urn:oid:2.16.840.1.113883.6.238"/>
                            <code value="2106-3"/>
                            <display value="White"/>
                        </valueCoding>
                    </extension>
                    <extension url="text">
                        <valueString value="White"/>
                    </extension>
                </extension>
                <extension url="http://hl7.org/fhir/us/core/StructureDefinition/us-core-ethnicity">
                    <extension url="ombCategory">
                        <valueCoding>
                            <system value="urn:oid:2.16.840.1.113883.6.238"/>
                            <code value="2186-5"/>
                            <display value="Not Hispanic or Latino"/>
                        </valueCoding>
                    </extension>
                    <extension url="text">
                        <valueString value="Not Hispanic or Latino"/>
                    </extension>
                </extension>
                <extension url="http://hl7.org/fhir/us/core/StructureDefinition/us-core-birthsex">
                    <valueCode value="F"/>
                </extension>
                <extension url="http://hl7.org/fhir/StructureDefinition/patient-birthPlace">
                    <valueAddress>
                        <city value="Salt Lake City"/>
                        <district value="Salt Lake"/>
                        <state value="UT"/>
                    </valueAddress>
                </extension>
                <identifier>
                    <use value="usual"/>
                    <type>
                        <coding>
                            <system value="http://terminology.hl7.org/CodeSystem/v2-0203"/>
                            <code value="MR"/>
                            <display value="Medical Record Number"/>
                        </coding>
                    </type>
                    <system value="http://hospital.smarthealthit.org"/>
                    <value value="9932702"/>
                </identifier>
                <name>
                    <family value="Quinn"/>
                    <given value="Baby"/>
                    <given value="G"/>
                </name>
                <gender value="female"/>
                <birthDate value="2019-02-12">
                    <extension url="http://hl7.org/fhir/StructureDefinition/patient-birthTime">
                        <valueDateTime value="2019-02-12T13:00:00-07:00"/>
                    </extension>
                </birthDate>
                <multipleBirthInteger value="1"/>
            </Patient>
        </resource>
    </entry>
    <entry>
        <fullUrl value="Organization/organization-south-hospital"/>
        <resource>
            <Organization>
                <id value="organization-south-hospital"/>
                <meta>
                    <versionId value="1"/>
                    <lastUpdated value="2020-08-08T01:59:28.513+00:00"/>
                    <source value="#QDsHrCjdiJemDOGr"/>
                    <profile value="http://hl7.org/fhir/us/core/StructureDefinition/us-core-organization"/>
                </meta>
                <identifier>
                    <system value="http://hl7.org/fhir/sid/us-npi"/>
                    <value value="5555512"/>
                </identifier>
                <active value="true"/>
                <type>
                    <coding>
                        <system value="http://terminology.hl7.org/CodeSystem/v3-RoleCode"/>
                        <code value="HOSP"/>
                        <display value="Hospital"/>
                    </coding>
                </type>
                <name value="South Hospital"/>
                <telecom>
                    <system value="phone"/>
                    <value value="+1-555-555-1111"/>
                </telecom>
                <telecom>
                    <system value="email"/>
                    <value value="mail@southhospital.com"/>
                </telecom>
                <address>
                    <line value="2100 North Ave"/>
                    <city value="Salt Lake City"/>
                    <state value="UT"/>
                    <postalCode value="84116"/>
                    <country value="US"/>
                </address>
            </Organization>
        </resource>
    </entry>
    <entry>
        <fullUrl value="RelatedPerson/relatedperson-mother-carmen-teresa-lee"/>
        <resource>
            <RelatedPerson>
                <id value="relatedperson-mother-carmen-teresa-lee"/>
                <meta>
                    <versionId value="2"/>
                    <lastUpdated value="2020-08-20T23:21:22.964+00:00"/>
                    <source value="#9SaLipGBpGatEIT6"/>
                    <profile value="http://hl7.org/fhir/us/vr-common-library/StructureDefinition/RelatedPerson-mother"/>
                </meta>
                <active value="true"/>
                <patient>
                    <reference value="Patient/patient-decedent-fetus-not-named"/>
                    <display value="Patient - Decedent Fetus (Fetus Not Named)"/>
                </patient>
                <relationship>
                    <coding>
                        <system value="http://terminology.hl7.org/CodeSystem/v3-RoleCode"/>
                        <code value="NMTH"/>
                        <display value="natural mother"/>
                    </coding>
                    <text value="Natural Mother"/>
                </relationship>
                <name>
                    <use value="official"/>
                    <family value="Lee"/>
                    <given value="Carmen"/>
                    <given value="Teresa"/>
                </name>
                <gender value="female"/>
                <birthDate value="1986-02-15"/>
            </RelatedPerson>
        </resource>
    </entry>
    <entry>
        <fullUrl value="Patient/patient-mother-carmen-teresa-lee"/>
        <resource>
            <Patient>
                <id value="patient-mother-carmen-teresa-lee"/>
                <meta>
                    <versionId value="3"/>
                    <lastUpdated value="2020-09-01T06:40:21.408+00:00"/>
                    <source value="#U7j09bj99aDDca75"/>
                    <profile value="http://hl7.org/fhir/us/vr-common-library/StructureDefinition/Patient-mother"/>
                </meta>
                <text>
                    <status value="generated"/>
                    <div xmlns="http://www.w3.org/1999/xhtml">
                        <div class="hapiHeaderText">Carmen Teresa <b>LEE </b>
                        </div>
                        <table class="hapiPropertyTable">
                            <tbody>
                                <tr>
                                    <td>Identifier</td>
                                    <td>9992702</td>
                                </tr>
                                <tr>
                                    <td>Address</td>
                                    <td>
                                        <span>3670 Miller Road </span>
                                        <br/>
                                        <span>Ann Arbor </span>
                                        <span>MI </span>
                                        <span>US </span>
                                    </td>
                                </tr>
                                <tr>
                                    <td>Date of birth</td>
                                    <td>
                                        <span>15 February 1986</span>
                                    </td>
                                </tr>
                            </tbody>
                        </table>
                    </div>
                </text>
                <extension url="http://hl7.org/fhir/us/core/StructureDefinition/us-core-race">
                    <extension url="ombCategory">
                        <valueCoding>
                            <system value="urn:oid:2.16.840.1.113883.6.238"/>
                            <code value="2054-5"/>
                            <display value="Black or African American"/>
                        </valueCoding>
                    </extension>
                    <extension url="text">
                        <valueString value="Black or African America"/>
                    </extension>
                </extension>
                <extension url="http://hl7.org/fhir/us/core/StructureDefinition/us-core-ethnicity">
                    <extension url="ombCategory">
                        <valueCoding>
                            <system value="urn:oid:2.16.840.1.113883.6.238"/>
                            <code value="2135-2"/>
                            <display value="Hispanic or Latino"/>
                        </valueCoding>
                    </extension>
                    <extension url="text">
                        <valueString value="Hispanic or Latino"/>
                    </extension>
                </extension>
                <extension url="http://hl7.org/fhir/us/core/StructureDefinition/us-core-birthsex">
                    <valueCode value="F"/>
                </extension>
                <extension url="http://hl7.org/fhir/StructureDefinition/patient-birthPlace">
                    <valueAddress>
                        <state value="PR"/>
                    </valueAddress>
                </extension>
                <identifier>
                    <use value="usual"/>
                    <type>
                        <coding>
                            <system value="http://terminology.hl7.org/CodeSystem/v2-0203"/>
                            <code value="MR"/>
                            <display value="Medical Record Number"/>
                        </coding>
                    </type>
                    <system value="http://hospital.smarthealthit.org"/>
                    <value value="9992702"/>
                </identifier>
                <name>
                    <use value="official"/>
                    <family value="Lee"/>
                    <given value="Carmen"/>
                    <given value="Teresa"/>
                </name>
                <name>
                    <use value="maiden"/>
                    <family value="Santos"/>
                    <given value="Carmen"/>
                    <given value="Teresa"/>
                </name>
                <gender value="female"/>
                <birthDate value="1986-02-15"/>
                <address>
                    <extension url="http://hl7.org/fhir/us/vr-common-library/StructureDefinition/Extension-within-city-limits-indicator">
                        <valueCoding>
                            <system value="http://terminology.hl7.org/CodeSystem/v2-0532"/>
                            <code value="N"/>
                            <display value="No"/>
                        </valueCoding>
                    </extension>
                    <use value="home"/>
                    <line value="3670 Miller Road"/>
                    <city value="Ann Arbor"/>
                    <state value="MI"/>
                    <postalCode value="48103"/>
                    <country value="US"/>
                </address>
            </Patient>
        </resource>
    </entry>
    <entry>
        <fullUrl value="Location/location-south-hospital"/>
        <resource>
            <Location>
                <id value="location-south-hospital"/>
                <meta>
                    <versionId value="1"/>
                    <lastUpdated value="2020-08-07T03:08:16.180+00:00"/>
                    <source value="#b4SJQY6FL0L0RNZ0"/>
                    <profile value="http://hl7.org/fhir/us/core/StructureDefinition/us-core-location"/>
                </meta>
                <status value="active"/>
                <name value="South Hospital"/>
                <type>
                    <coding>
                        <system value="http://terminology.hl7.org/CodeSystem/v3-RoleCode"/>
                        <code value="HOSP"/>
                        <display value="Hospital"/>
                    </coding>
                </type>
            </Location>
        </resource>
    </entry>
    <entry>
        <fullUrl value="Practitioner/practitioner-live-birth-fetal-death-janet-seito"/>
        <resource>
            <Practitioner>
                <id value="practitioner-live-birth-fetal-death-janet-seito"/>
                <meta>
                    <versionId value="1"/>
                    <lastUpdated value="2020-08-17T09:54:01.095+00:00"/>
                    <source value="#SkUf5xP0KEse07vi"/>
                    <profile value="http://hl7.org/fhir/us/vr-common-library/StructureDefinition/Practitioner-live-birth-fetal-death"/>
                </meta>
                <identifier>
                    <system value="http://hl7.org/fhir/sid/us-npi"/>
                    <value value="223347044"/>
                </identifier>
                <name>
                    <family value="Jones"/>
                    <given value="Avery"/>
                    <suffix value="M.D."/>
                </name>
                <qualification>
                    <code>
                        <coding>
                            <system value="http://snomed.info/sct"/>
                            <code value="112247003"/>
                            <display value="Medical doctor"/>
                        </coding>
                    </code>
                </qualification>
            </Practitioner>
        </resource>
    </entry>
    <entry>
        <fullUrl value="Observation/observation-edit-flag-plurality-example"/>
        <resource>
            <Observation
                xmlns="http://hl7.org/fhir">
                <id value="observation-edit-flag-plurality-example"/>
                <meta>
                    <versionId value="1"/>
                    <lastUpdated value="2020-11-18T23:57:59.374+00:00"/>
                    <source value="#kk83PssAbQ1ZZn8E"/>
                    <profile value="http://hl7.org/fhir/us/bfdr/StructureDefinition/Observation-edit-flag-plurality"/>
                </meta>
                <status value="final"/>
                <code>
                    <coding>
                        <system value="urn:oid:2.16.840.1.114222.4.5.274"/>
                        <code value="PHC1489"/>
                        <display value="Plurality Edit flag"/>
                    </coding>
                </code>
                <subject>
                    <reference value="Patient/patient-child-babyg-quinn"/>
                    <display value="BabyG Quinn"/>
                </subject>
                <valueCodeableConcept>
                    <coding>
                        <system value="urn:oid:2.16.840.1.114222.4.5.274"/>
                        <code value="PHC1494"/>
                        <display value="Queried, and Correct"/>
                    </coding>
                </valueCodeableConcept>
            </Observation>
        </resource>
    </entry>
    <entry>
        <fullUrl value="Observation/observation-edit-birth-weight-babyg-quinn"/>
        <resource>
            <Observation
                xmlns="http://hl7.org/fhir">
                <id value="observation-edit-birth-weight-babyg-quinn"/>
                <meta>
                    <versionId value="1"/>
                    <lastUpdated value="2020-11-18T23:57:59.404+00:00"/>
                    <source value="#Vfwux7aw2hbPeNfj"/>
                    <profile value="http://hl7.org/fhir/us/bfdr/StructureDefinition/Observation-edit-flag-birthweight"/>
                </meta>
                <status value="final"/>
                <code>
                    <coding>
                        <system value="urn:oid:2.16.840.1.114222.4.5.274"/>
                        <code value="PCH1478"/>
                        <display value="Birth weight Edit flag"/>
                    </coding>
                </code>
                <subject>
                    <reference value="Patient/patient-child-babyg-quinn"/>
                    <display value="BabyG Quinn"/>
                </subject>
                <valueCodeableConcept>
                    <coding>
                        <system value="urn:oid:2.16.840.1.114222.4.5.274"/>
                        <code value="PHC1380"/>
                        <display value="Off"/>
                    </coding>
                </valueCodeableConcept>
            </Observation>
        </resource>
    </entry>
    <entry>
        <fullUrl value="Observation/observation-edit-flag-estimate-of-gestation-example"/>
        <resource>
            <Observation
                xmlns="http://hl7.org/fhir">
                <id value="observation-edit-flag-estimate-of-gestation-example"/>
                <meta>
                    <versionId value="1"/>
                    <lastUpdated value="2020-11-18T23:57:59.405+00:00"/>
                    <source value="#fpTT123uL8Lm4qN3"/>
                    <profile value="http://hl7.org/fhir/us/bfdr/StructureDefinition/Observation-edit-flag-estimate-of-gestation"/>
                </meta>
                <status value="final"/>
                <code>
                    <coding>
                        <system value="urn:oid:2.16.840.1.114222.4.5.274"/>
                        <code value="PHC1481"/>
                        <display value="Gestation age Edit flag"/>
                    </coding>
                </code>
                <subject>
                    <reference value="Patient/patient-child-babyg-quinn"/>
                    <display value="BabyG Quinn"/>
                </subject>
                <valueCodeableConcept>
                    <coding>
                        <system value="urn:oid:2.16.840.1.114222.4.5.274"/>
                        <code value="PHC1380"/>
                        <display value="Off"/>
                    </coding>
                </valueCodeableConcept>
            </Observation>
        </resource>
    </entry>
    <entry>
        <fullUrl value="Observation/observation-edit-flag-mothers-date-of-birth-example"/>
        <resource>
            <Observation
                xmlns="http://hl7.org/fhir">
                <id value="observation-edit-flag-mothers-date-of-birth-example"/>
                <meta>
                    <versionId value="1"/>
                    <lastUpdated value="2020-11-18T23:57:59.405+00:00"/>
                    <source value="#oXdBMTcNo1LhPenU"/>
                    <profile value="http://hl7.org/fhir/us/bfdr/StructureDefinition/Observation-edit-flag-mothers-date-of-birth"/>
                </meta>
                <status value="final"/>
                <code>
                    <coding>
                        <system value="urn:oid:2.16.840.1.114222.4.5.274"/>
                        <code value="PHC1482"/>
                        <display value="Mothers birthdate Edit flag"/>
                    </coding>
                </code>
                <subject>
                    <reference value="Patient/patient-child-babyg-quinn"/>
                    <display value="BabyG Quinn"/>
                </subject>
                <valueCodeableConcept>
                    <coding>
                        <system value="urn:oid:2.16.840.1.114222.4.5.274"/>
                        <code value="PHC1362"/>
                        <display value="Edit Passed"/>
                    </coding>
                </valueCodeableConcept>
            </Observation>
        </resource>
    </entry>
    <entry>
        <fullUrl value="Observation/observation-edit-flag-mothers-education-example"/>
        <resource>
            <Observation
                xmlns="http://hl7.org/fhir">
                <id value="observation-edit-flag-mothers-education-example"/>
                <meta>
                    <versionId value="1"/>
                    <lastUpdated value="2020-11-18T23:57:59.409+00:00"/>
                    <source value="#1WW4OGjjPblYwE0F"/>
                    <profile value="http://hl7.org/fhir/us/bfdr/StructureDefinition/Observation-edit-flag-mothers-education"/>
                </meta>
                <status value="final"/>
                <code>
                    <coding>
                        <system value="urn:oid:2.16.840.1.114222.4.5.274"/>
                        <code value="PHC1484"/>
                        <display value="Mothers education Edit flag"/>
                    </coding>
                </code>
                <subject>
                    <reference value="Patient/patient-child-babyg-quinn"/>
                    <display value="BabyG Quinn"/>
                </subject>
                <valueCodeableConcept>
                    <coding>
                        <system value="urn:oid:2.16.840.1.114222.4.5.274"/>
                        <code value="PHC1362"/>
                        <display value="Edit Passed"/>
                    </coding>
                </valueCodeableConcept>
            </Observation>
        </resource>
    </entry>
    <entry>
        <fullUrl value="Observation/observation-edit-flag-mothers-height-example"/>
        <resource>
            <Observation
                xmlns="http://hl7.org/fhir">
                <id value="observation-edit-flag-mothers-height-example"/>
                <meta>
                    <versionId value="1"/>
                    <lastUpdated value="2020-11-18T23:57:59.606+00:00"/>
                    <source value="#2hFotu05osBANPmh"/>
                    <profile value="http://hl7.org/fhir/us/bfdr/StructureDefinition/Observation-edit-flag-mothers-height"/>
                </meta>
                <status value="final"/>
                <code>
                    <coding>
                        <system value="urn:oid:2.16.840.1.114222.4.5.274"/>
                        <code value="PHC1485"/>
                        <display value="Mothers height Edit flag"/>
                    </coding>
                </code>
                <subject>
                    <reference value="Patient/patient-child-babyg-quinn"/>
                    <display value="BabyG Quinn"/>
                </subject>
                <valueCodeableConcept>
                    <coding>
                        <system value="urn:oid:2.16.840.1.114222.4.5.274"/>
                        <code value="PHC1362"/>
                        <display value="Edit Passed"/>
                    </coding>
                </valueCodeableConcept>
            </Observation>
        </resource>
    </entry>
    <entry>
        <fullUrl value="Observation/observation-edit-flag-mothers-prepregnancy-weight-example"/>
        <resource>
            <Observation
                xmlns="http://hl7.org/fhir">
                <id value="observation-edit-flag-mothers-prepregnancy-weight-example"/>
                <meta>
                    <versionId value="1"/>
                    <lastUpdated value="2020-11-18T23:57:59.711+00:00"/>
                    <source value="#Da6PAGK9MuHGZ0ip"/>
                    <profile value="http://hl7.org/fhir/us/bfdr/StructureDefinition/Observation-edit-flag-mothers-prepregnancy-weight"/>
                </meta>
                <status value="final"/>
                <code>
                    <coding>
                        <system value="urn:oid:2.16.840.1.114222.4.5.274"/>
                        <code value="PHC1486"/>
                        <display value="Mothers Prepregnancy Weight Edit flag"/>
                    </coding>
                </code>
                <subject>
                    <reference value="Patient/patient-child-babyg-quinn"/>
                    <display value="BabyG Quinn"/>
                </subject>
                <valueCodeableConcept>
                    <coding>
                        <system value="urn:oid:2.16.840.1.114222.4.5.274"/>
                        <code value="PHC1362"/>
                        <display value="Edit Passed"/>
                    </coding>
                </valueCodeableConcept>
            </Observation>
        </resource>
    </entry>
    <entry>
        <fullUrl value="Observation/observation-edit-flag-number-previous-cesareans-example"/>
        <resource>
            <Observation
                xmlns="http://hl7.org/fhir">
                <id value="observation-edit-flag-number-previous-cesareans-example"/>
                <meta>
                    <versionId value="1"/>
                    <lastUpdated value="2020-11-18T23:57:59.404+00:00"/>
                    <source value="#MaLcNl8SzSefAXnD"/>
                    <profile value="http://hl7.org/fhir/us/bfdr/StructureDefinition/Observation-edit-flag-number-previous-cesareans"/>
                </meta>
                <status value="final"/>
                <code>
                    <coding>
                        <system value="urn:oid:2.16.840.1.114222.4.5.274"/>
                        <code value="PHC1488"/>
                        <display value="Previous Cesarians Edit flag"/>
                    </coding>
                </code>
                <subject>
                    <reference value="Patient/patient-child-babyg-quinn"/>
                    <display value="BabyG Quinn"/>
                </subject>
                <valueCodeableConcept>
                    <coding>
                        <system value="urn:oid:2.16.840.1.114222.4.5.274"/>
                        <code value="PHC1362"/>
                        <display value="Edit Passed"/>
                    </coding>
                </valueCodeableConcept>
            </Observation>
        </resource>
    </entry>
</Bundle>
